time,sensor_AccelerometerX[],sensor_AccelerometerY[],sensor_AccelerometerZ[],sensor_GyroscopeX[],sensor_GyroscopeY[],sensor_GyroscopeZ[],label_shakestill_STILL,label_shakestill_shake
1659956794349,-0.30000000000000004,5.300000000000001,8.6,,,,,
1659956794529,-0.30000000000000004,5.1000000000000005,8.8,,,,x,
1659956794549,-0.30000000000000004,5.2,8.6,,,,x,
1659956794569,-0.30000000000000004,5.2,8.4,,,,x,
1659956794589,-0.2,5.2,8.5,,,,x,
1659956794594,,,,0.006981317007977318,0.04188790204786391,0.013962634015954637,x,
1659956794609,-0.2,5.2,8.3,,,,x,
1659956794629,-0.2,5.2,8.200000000000001,,,,x,
1659956794634,,,,-0.020943951023931956,0.08203047484373349,0.010471975511965978,x,
1659956794649,-0.2,5.2,8.200000000000001,,,,x,
1659956794654,,,,-0.04537856055185257,0.12217304763960307,0.013962634015954637,x,
1659956794669,-0.30000000000000004,5.1000000000000005,8.3,,,,x,
1659956794673,,,,-0.026179938779914945,0.0767944870877505,0.005235987755982989,x,
1659956794689,-0.4,5.1000000000000005,8,,,,x,
1659956794694,,,,0.031415926535897934,0.03316125578789226,-0.006981317007977318,x,
1659956794709,-0.30000000000000004,5.1000000000000005,7.9,,,,x,
1659956794718,,,,0.09250245035569947,-0.026179938779914945,0.006981317007977318,x,
1659956794729,-0.1,5.4,7.9,,,,x,
1659956794740,,,,0.07853981633974483,-0.03316125578789226,-0.013962634015954637,x,
1659956794750,-0.2,5.300000000000001,7.9,,,,x,
1659956794769,-0.30000000000000004,5.2,7.9,,,,x,
1659956794774,,,,0.006981317007977318,-0.04537856055185257,-0.048869219055841226,x,
1659956794789,-0.5,5,7.9,,,,x,
1659956794801,,,,-0.10297442586766545,0.005235987755982989,-0.05061454830783556,x,
1659956794810,-0.4,5.1000000000000005,8.4,,,,x,
1659956794820,,,,-0.21642082724729686,0.005235987755982989,-0.017453292519943295,x,
1659956794834,-0.2,5.1000000000000005,8.8,,,,x,
1659956794853,-0.30000000000000004,5.1000000000000005,8.9,,,,x,
1659956794854,,,,-0.1884955592153876,-0.03839724354387525,-0.013962634015954637,x,
1659956794878,-0.4,5,7.9,,,,x,
1659956794892,,,,-0.019198621771937624,-0.003490658503988659,-0.03665191429188092,x,
1659956794909,-0.5,4.9,7.7,,,,x,
1659956794918,,,,-0.022689280275926284,-0.020943951023931956,0.005235987755982989,x,
1659956794929,-0.4,4.9,7.800000000000001,,,,x,
1659956794937,,,,-0.05235987755982989,-0.09948376736367678,0.027925268031909273,x,
1659956794951,-0.1,5.1000000000000005,8.1,,,,x,
1659956794969,-0.1,5.2,8.6,,,,x,
1659956794977,,,,-0.11868238913561441,-0.1239183768915974,0.05235987755982989,x,
1659956795069,-0.2,4.9,8.700000000000001,,,,x,
1659956795074,,,,-0.09075712110370514,-0.06981317007977318,0.05235987755982989,x,
1659956795089,-0.2,4.9,8.8,,,,x,
1659956795100,,,,-0.05061454830783556,-0.029670597283903602,0.03665191429188092,x,
1659956795109,-0.1,4.9,8.6,,,,x,
1659956795116,,,,-0.0471238898038469,0.026179938779914945,0.012217304763960306,x,
1659956795137,-0.2,4.800000000000001,8.5,-0.03316125578789226,0.03665191429188092,-0.0017453292519943296,x,
1659956795169,-0.1,4.9,8.200000000000001,,,,x,
1659956795174,,,,0.026179938779914945,-0.0471238898038469,0.022689280275926284,x,
1659956795189,0,4.9,8.200000000000001,,,,x,
1659956795210,0,5,8.5,,,,x,
1659956795220,,,,-0.05585053606381855,-0.008726646259971648,0.0017453292519943296,x,
1659956795409,-0.2,4.800000000000001,8.4,,,,x,
1659956795423,-0.30000000000000004,4.7,8.5,-0.003490658503988659,0.005235987755982989,-0.026179938779914945,x,
1659956795432,-0.2,4.7,8.4,0.1239183768915974,-0.026179938779914945,-0.03490658503988659,x,
1659956795448,,,,0.04363323129985824,0.03490658503988659,0.020943951023931956,x,
1659956795449,0,4.9,8.4,,,,x,
1659956795469,-0.1,4.9,8.4,,,,x,
1659956795473,,,,-0.026179938779914945,0.09250245035569947,-0.020943951023931956,x,
1659956795590,-0.30000000000000004,4.9,8.3,,,,x,
1659956795594,,,,-0.005235987755982989,0.07330382858376185,-0.019198621771937624,x,
1659956795609,-0.4,4.800000000000001,8.4,,,,x,
1659956795613,,,,-0.020943951023931956,0.048869219055841226,-0.029670597283903602,x,
1659956795636,-0.30000000000000004,4.800000000000001,8.3,,,,x,
1659956795637,,,,0.0471238898038469,-0.04537856055185257,-0.03839724354387525,x,
1659956795655,-0.5,4.7,8.5,,,,x,
1659956795656,,,,0.006981317007977318,-0.015707963267948967,-0.04537856055185257,x,
1659956795689,-0.5,4.7,8.6,,,,x,
1659956795694,,,,-0.0645771823237902,0.06632251157578452,-0.04363323129985824,x,
1659956795711,-0.2,4.800000000000001,8.700000000000001,,,,x,
1659956795724,,,,-0.024434609527920613,0.029670597283903602,0.012217304763960306,x,
1659956795729,-0.2,4.800000000000001,8.5,,,,x,
1659956795738,,,,0.020943951023931956,0.020943951023931956,0.0017453292519943296,x,
1659956795755,-0.4,4.800000000000001,8.5,,,,x,
1659956795771,-0.4,4.800000000000001,8.6,,,,x,
1659956795773,,,,0.010471975511965978,0.05061454830783556,-0.017453292519943295,x,
1659956795790,-0.6000000000000001,4.800000000000001,8.8,,,,x,
1659956795793,,,,-0.017453292519943295,0.1466076571675237,-0.008726646259971648,x,
1659956795809,-0.5,4.800000000000001,8,,,,x,
1659956795817,,,,0.05235987755982989,0.16057029118347832,0.0017453292519943296,x,
1659956795833,-0.5,4.7,8.200000000000001,0.12740903539558607,-0.015707963267948967,0,x,
1659956795851,-0.4,4.7,8.1,,,,x,
1659956795869,-0.4,4.7,8.200000000000001,,,,x,
1659956795874,,,,0.1466076571675237,-0.11519173063162576,0.029670597283903602,x,
1659956795889,-0.30000000000000004,5.1000000000000005,8.3,,,,x,
1659956795893,,,,-0.08203047484373349,0.022689280275926284,0.0767944870877505,x,
1659956795909,-0.30000000000000004,4.9,8.3,,,,x,
1659956795918,,,,-0.10646508437165411,-0.006981317007977318,0.03490658503988659,x,
1659956795933,-0.30000000000000004,4.9,8.5,,,,x,
1659956795950,-0.2,4.9,8.9,,,,x,
1659956795953,,,,0.008726646259971648,-0.06806784082777885,0.020943951023931956,x,
1659956795969,-0.1,4.9,8.700000000000001,,,,x,
1659956795973,,,,0.03839724354387525,-0.013962634015954637,0.003490658503988659,x,
1659956795989,-0.30000000000000004,4.9,8.4,,,,x,
1659956796069,-0.30000000000000004,4.9,8.5,,,,x,
1659956796073,,,,-0.04014257279586958,0.008726646259971648,-0.026179938779914945,x,
1659956796089,-0.4,4.7,8.700000000000001,,,,x,
1659956796093,,,,-0.003490658503988659,0.0017453292519943296,-0.04188790204786391,x,
1659956796109,-0.4,4.800000000000001,8.6,,,,x,
1659956796116,,,,0.031415926535897934,0.006981317007977318,-0.024434609527920613,x,
1659956796133,-0.4,4.7,8.200000000000001,,,,x,
1659956796134,,,,0.04014257279586958,0.017453292519943295,-0.010471975511965978,x,
1659956796282,-0.4,4.800000000000001,8.5,-0.003490658503988659,-0.03316125578789226,-0.013962634015954637,x,
1659956796310,-0.4,4.800000000000001,8.5,,,,x,
1659956796311,,,,0.008726646259971648,-0.012217304763960306,0,x,
1659956796329,-0.30000000000000004,4.9,8.5,,,,x,
1659956796340,,,,0.027925268031909273,-0.017453292519943295,0.03316125578789226,x,
1659956796349,-0.1,5,8.6,,,,x,
1659956796376,-0.5,4.7,8.3,,,,x,
1659956796377,,,,-0.006981317007977318,0.059341194567807204,-0.03839724354387525,x,
1659956796394,,,,-0.024434609527920613,0.04014257279586958,-0.020943951023931956,x,
1659956796409,-0.5,4.800000000000001,8.3,,,,x,
1659956796429,-0.30000000000000004,4.800000000000001,8.4,,,,x,
1659956796439,,,,0.024434609527920613,-0.04363323129985824,0.026179938779914945,x,
1659956796459,-0.4,4.9,8.3,0.015707963267948967,-0.022689280275926284,0.022689280275926284,x,
1659956796489,-0.30000000000000004,4.9,8.5,,,,x,
1659956796556,-0.2,4.9,8.6,-0.005235987755982989,0.010471975511965978,0.03490658503988659,x,
1659956796573,,,,0.027925268031909273,-0.005235987755982989,0.04014257279586958,x,
1659956796589,-0.2,5,8.4,,,,x,
1659956796609,-0.30000000000000004,4.9,8.4,,,,x,
1659956796613,,,,0.027925268031909273,0.024434609527920613,0.019198621771937624,x,
1659956796629,-0.30000000000000004,4.800000000000001,8.4,,,,x,
1659956796639,,,,0.006981317007977318,-0.003490658503988659,-0.012217304763960306,x,
1659956796649,-0.4,4.7,8.5,,,,x,
1659956796676,-0.4,4.800000000000001,8.3,,,,x,
1659956796677,,,,0,0.03665191429188092,0.003490658503988659,x,
1659956796694,,,,0.017453292519943295,0,0.005235987755982989,x,
1659956796709,-0.30000000000000004,4.9,8.3,,,,x,
1659956796729,-0.30000000000000004,4.800000000000001,8.6,,,,x,
1659956796742,,,,-0.003490658503988659,-0.029670597283903602,0,x,
1659956796749,-0.4,4.800000000000001,8.5,,,,x,
1659956796753,,,,-0.020943951023931956,0.003490658503988659,-0.013962634015954637,x,
1659956796775,-0.4,4.800000000000001,8.5,,,,x,
1659956796789,-0.4,4.800000000000001,8.5,,,,x,
1659956796794,,,,0.0017453292519943296,-0.006981317007977318,0.012217304763960306,x,
1659956796809,-0.30000000000000004,4.800000000000001,8.4,,,,x,
1659956796814,,,,-0.022689280275926284,0.024434609527920613,0.017453292519943295,x,
1659956796829,-0.30000000000000004,4.800000000000001,8.6,,,,x,
1659956796843,,,,-0.020943951023931956,0.04363323129985824,0.012217304763960306,x,
1659956796849,-0.30000000000000004,4.9,8.5,,,,x,
1659956796854,,,,0.022689280275926284,0.022689280275926284,-0.003490658503988659,x,
1659956796869,-0.4,4.800000000000001,8.4,,,,x,
1659956796873,,,,0.05759586531581288,-0.008726646259971648,-0.013962634015954637,x,
1659956796891,-0.4,4.800000000000001,8.3,,,,x,
1659956796909,-0.4,4.800000000000001,8.200000000000001,,,,x,
1659956796913,,,,0.026179938779914945,0.0017453292519943296,0.015707963267948967,x,
1659956796929,-0.2,4.9,8.3,,,,x,
1659956796934,,,,-0.005235987755982989,-0.013962634015954637,0.020943951023931956,x,
1659956796998,-0.4,4.800000000000001,8.5,,,,x,
1659956796999,,,,-0.04188790204786391,0.03316125578789226,-0.022689280275926284,x,
1659956797183,-0.30000000000000004,5,8.5,0.031415926535897934,-0.0017453292519943296,0.006981317007977318,x,
1659956797196,-0.4,4.9,8.5,0.0017453292519943296,0.03665191429188092,-0.022689280275926284,x,
1659956797214,,,,0.019198621771937624,0.03839724354387525,-0.0471238898038469,x,
1659956797229,-0.5,4.800000000000001,8.4,,,,x,
1659956797236,,,,0.03665191429188092,-0.0017453292519943296,-0.04014257279586958,x,
1659956797361,-0.5,4.800000000000001,8.5,,,,x,
1659956797364,,,,0.03490658503988659,-0.0471238898038469,-0.010471975511965978,x,
1659956797376,-0.4,4.9,8.4,0.054105206811824215,-0.048869219055841226,0.013962634015954637,x,
1659956797393,,,,0.0471238898038469,-0.019198621771937624,0.020943951023931956,x,
1659956797409,-0.5,4.9,8.200000000000001,,,,x,
1659956797413,,,,0.006981317007977318,0.006981317007977318,0.019198621771937624,x,
1659956797429,-0.4,4.800000000000001,8.3,,,,x,
1659956797488,-0.4,5,8.1,-0.031415926535897934,-0.04537856055185257,0.048869219055841226,x,
1659956797579,-0.2,5,8.6,-0.07853981633974483,-0.015707963267948967,0.04537856055185257,x,
1659956797593,,,,-0.020943951023931956,0.048869219055841226,-0.015707963267948967,x,
1659956797609,-0.5,4.800000000000001,8.200000000000001,,,,x,
1659956797629,-0.4,4.7,8.200000000000001,,,,x,
1659956797633,,,,0,0.0017453292519943296,-0.03490658503988659,x,
1659956797649,-0.30000000000000004,4.800000000000001,8.4,,,,x,
1659956797658,,,,-0.03839724354387525,-0.04363323129985824,0.013962634015954637,x,
1659956797669,-0.30000000000000004,4.9,8.6,,,,x,
1659956797689,-0.4,4.800000000000001,8.6,,,,x,
1659956797694,,,,-0.0017453292519943296,0.003490658503988659,-0.017453292519943295,x,
1659956797709,-0.4,4.800000000000001,8.4,,,,x,
1659956797713,,,,-0.0017453292519943296,0.022689280275926284,-0.006981317007977318,x,
1659956797729,-0.4,4.800000000000001,8.4,,,,x,
1659956797736,,,,-0.005235987755982989,0.020943951023931956,0.003490658503988659,x,
1659956797749,-0.30000000000000004,4.800000000000001,8.4,,,,x,
1659956797753,,,,0.010471975511965978,0,0.010471975511965978,x,
1659956797771,-0.30000000000000004,4.9,8.4,,,,x,
1659956797773,,,,0.013962634015954637,0.005235987755982989,0.003490658503988659,x,
1659956797789,-0.4,4.800000000000001,8.200000000000001,,,,x,
1659956797809,-0.30000000000000004,4.800000000000001,8.4,,,,x,
1659956797813,,,,-0.020943951023931956,-0.010471975511965978,0.008726646259971648,x,
1659956797829,-0.30000000000000004,4.800000000000001,8.4,,,,x,
1659956797837,,,,-0.006981317007977318,-0.03490658503988659,0.017453292519943295,x,
1659956797853,-0.30000000000000004,4.9,8.3,,,,x,
1659956797869,-0.1,5,8.700000000000001,,,,x,
1659956797873,,,,-0.024434609527920613,-0.03490658503988659,0.026179938779914945,x,
1659956797889,-0.1,5,8.8,,,,x,
1659956798149,-0.30000000000000004,4.9,8.5,,,,x,
1659956798153,,,,-0.05759586531581288,0.03490658503988659,0.012217304763960306,x,
1659956798184,-0.2,4.9,8.4,,,,x,
1659956798185,,,,0.04014257279586958,-0.04537856055185257,0.010471975511965978,x,
1659956798225,-0.1,4.9,8.6,,,,x,
1659956798226,,,,-0.020943951023931956,-0.029670597283903602,0.015707963267948967,x,
1659956798247,-0.2,4.9,8.6,,,,x,
1659956798248,,,,-0.06632251157578452,0.012217304763960306,0.006981317007977318,x,
1659956798273,-0.2,4.9,8.6,,,,x,
1659956798274,,,,-0.06283185307179587,0.05061454830783556,-0.008726646259971648,x,
1659956798296,-0.4,4.800000000000001,8.4,0.03316125578789226,-0.005235987755982989,-0.031415926535897934,x,
1659956798313,,,,0.0471238898038469,-0.04537856055185257,-0.022689280275926284,x,
1659956798329,-0.4,4.800000000000001,8.3,,,,x,
1659956798341,,,,0.017453292519943295,-0.04188790204786391,-0.022689280275926284,x,
1659956798349,-0.30000000000000004,4.7,8.6,,,,x,
1659956798359,,,,-0.031415926535897934,0,-0.024434609527920613,x,
1659956798375,-0.4,4.7,8.6,,,,x,
1659956798376,,,,-0.05061454830783556,0.06806784082777885,-0.015707963267948967,x,
1659956798395,-0.5,4.7,8.6,-0.026179938779914945,0.06283185307179587,-0.0017453292519943296,x,
1659956798413,,,,0.03490658503988659,0.003490658503988659,0.006981317007977318,x,
1659956798429,-0.5,4.800000000000001,8.4,,,,x,
1659956798446,,,,0.0890117918517108,-0.020943951023931956,0.024434609527920613,x,
1659956798449,-0.30000000000000004,4.800000000000001,8.200000000000001,,,,x,
1659956798459,,,,0.08028514559173916,0.005235987755982989,0.04363323129985824,x,
1659956798474,-0.30000000000000004,4.800000000000001,8,0.031415926535897934,0.054105206811824215,0.04188790204786391,x,
1659956798493,,,,-0.005235987755982989,0.048869219055841226,0.04014257279586958,x,
1659956798509,-0.2,4.9,8.1,,,,x,
1659956798529,-0.30000000000000004,4.800000000000001,8.3,,,,x,
1659956798533,,,,-0.013962634015954637,0.017453292519943295,0.03316125578789226,x,
1659956798549,-0.30000000000000004,4.800000000000001,8.5,,,,x,
1659956798559,,,,-0.03316125578789226,-0.03316125578789226,0.027925268031909273,x,
1659956798574,-0.2,4.9,8.5,,,,x,
1659956798649,-0.30000000000000004,4.9,8.6,,,,x,
1659956798656,,,,-0.008726646259971648,-0.008726646259971648,-0.031415926535897934,x,
1659956798672,-0.30000000000000004,4.800000000000001,8.700000000000001,,,,x,
1659956798673,,,,-0.008726646259971648,-0.008726646259971648,-0.020943951023931956,x,
1659956798689,-0.30000000000000004,4.7,8.8,,,,x,
1659956798709,-0.4,4.7,8.5,,,,x,
1659956798713,,,,0.029670597283903602,0.08377580409572782,-0.003490658503988659,x,
1659956798729,-0.4,4.800000000000001,8.3,,,,x,
1659956798733,,,,0.03839724354387525,0.07330382858376185,0.006981317007977318,x,
1659956798749,-0.30000000000000004,4.800000000000001,8.1,,,,x,
1659956798771,-0.4,4.800000000000001,8,,,,x,
1659956798773,,,,-0.012217304763960306,0.07330382858376185,0.006981317007977318,x,
1659956798789,-0.30000000000000004,4.800000000000001,8.1,,,,x,
1659956798793,,,,-0.017453292519943295,-0.005235987755982989,0.008726646259971648,x,
1659956798976,-0.2,4.800000000000001,8.5,-0.019198621771937624,-0.003490658503988659,-0.012217304763960306,x,
1659956798989,-0.2,4.800000000000001,8.4,0.026179938779914945,-0.03665191429188092,-0.020943951023931956,x,
1659956799003,,,,-0.015707963267948967,0.0017453292519943296,-0.026179938779914945,x,
1659956799009,-0.4,4.7,8.3,,,,x,
1659956799029,-0.4,4.7,8.5,,,,x,
1659956799041,,,,-0.017453292519943295,-0.031415926535897934,-0.0017453292519943296,x,
1659956799049,-0.30000000000000004,4.7,8.6,,,,x,
1659956799059,,,,-0.005235987755982989,-0.03665191429188092,0.003490658503988659,x,
1659956799069,-0.30000000000000004,4.800000000000001,8.5,,,,x,
1659956799149,-0.30000000000000004,4.800000000000001,8.6,,,,x,
1659956799158,,,,0.04014257279586958,-0.0017453292519943296,-0.04188790204786391,x,
1659956799180,-0.5,4.7,8,0.03490658503988659,0.05061454830783556,-0.031415926535897934,x,
1659956799193,,,,0.03490658503988659,0.054105206811824215,-0.017453292519943295,x,
1659956799209,-0.5,4.7,8,,,,x,
1659956799213,,,,0.006981317007977318,0.005235987755982989,-0.0017453292519943296,x,
1659956799229,-0.4,4.7,8.3,,,,x,
1659956799249,-0.4,4.7,8.700000000000001,,,,x,
1659956799261,,,,-0.061086523819801536,-0.03490658503988659,-0.003490658503988659,x,
1659956799269,-0.4,4.7,8.9,,,,x,
1659956799278,,,,-0.03665191429188092,-0.03316125578789226,0.0017453292519943296,x,
1659956799295,-0.5,4.6000000000000005,8.8,,,,x,
1659956799314,-0.2,4.800000000000001,8.4,,,,x,
1659956799315,,,,0.003490658503988659,0.054105206811824215,0.03665191429188092,x,
1659956799334,,,,0.006981317007977318,0.054105206811824215,0.05061454830783556,x,
1659956799349,-0.2,4.800000000000001,8.3,,,,x,
1659956799364,,,,0.026179938779914945,0.017453292519943295,0.04014257279586958,x,
1659956799383,-0.30000000000000004,4.800000000000001,8.200000000000001,,,,x,
1659956799384,,,,0.026179938779914945,0.005235987755982989,0.022689280275926284,x,
1659956799400,-0.1,4.9,8.3,,,,x,
1659956799401,,,,-0.008726646259971648,0.003490658503988659,0.024434609527920613,x,
1659956799429,-0.1,4.800000000000001,8.4,,,,x,
1659956799433,,,,-0.03316125578789226,-0.031415926535897934,0.0017453292519943296,x,
1659956799449,-0.2,4.800000000000001,8.5,,,,x,
1659956799458,,,,-0.029670597283903602,-0.022689280275926284,-0.0017453292519943296,x,
1659956799473,-0.30000000000000004,4.800000000000001,8.6,,,,x,
1659956799490,-0.1,4.800000000000001,8.700000000000001,,,,x,
1659956799493,,,,-0.017453292519943295,-0.04188790204786391,0.010471975511965978,x,
1659956799509,-0.1,4.800000000000001,8.8,,,,x,
1659956799513,,,,-0.008726646259971648,-0.010471975511965978,0.006981317007977318,x,
1659956799529,-0.1,4.800000000000001,8.700000000000001,,,,x,
1659956799549,-0.30000000000000004,4.800000000000001,8.6,,,,x,
1659956799553,,,,0.020943951023931956,0.019198621771937624,-0.015707963267948967,x,
1659956799574,-0.4,4.7,8.6,0.027925268031909273,0.015707963267948967,-0.015707963267948967,x,
1659956799660,,,,0.029670597283903602,0.05585053606381855,0.017453292519943295,x,
1659956799669,-0.4,4.800000000000001,8,,,,x,
1659956799674,,,,0.012217304763960306,0.05235987755982989,0.020943951023931956,x,
1659956799691,-0.30000000000000004,4.800000000000001,7.9,,,,x,
1659956799693,,,,0.003490658503988659,-0.0017453292519943296,0.022689280275926284,x,
1659956799858,-0.30000000000000004,4.7,8.6,-0.04188790204786391,0.017453292519943295,0.020943951023931956,x,
1659956799866,-0.2,4.800000000000001,8.4,,,,x,
1659956799867,,,,-0.027925268031909273,0.013962634015954637,0.03665191429188092,x,
1659956799899,-0.1,4.800000000000001,8.3,0.029670597283903602,-0.061086523819801536,0.03665191429188092,x,
1659956799914,,,,-0.054105206811824215,-0.015707963267948967,0.03316125578789226,x,
1659956799929,0,4.9,8.6,,,,x,
1659956799934,,,,-0.09075712110370514,0.003490658503988659,0.031415926535897934,x,
1659956799949,0,4.9,8.8,,,,x,
1659956799966,,,,-0.0471238898038469,-0.020943951023931956,0.019198621771937624,x,
1659956799969,0.1,4.9,8.9,,,,x,
1659956799977,,,,0.029670597283903602,-0.03839724354387525,0.005235987755982989,x,
1659956799994,0.1,5,8.5,0.05759586531581288,-0.027925268031909273,-0.005235987755982989,x,
1659956800033,0.1,4.9,8.6,,,,x,
1659956800034,,,,0.024434609527920613,0.003490658503988659,-0.022689280275926284,x,
1659956800049,0,4.9,8.700000000000001,,,,x,
1659956800053,,,,-0.020943951023931956,0.04014257279586958,-0.05235987755982989,x,
1659956800069,-0.1,4.800000000000001,8.6,,,,x,
1659956800073,,,,-0.017453292519943295,0.06283185307179587,-0.07504915783575618,x,
1659956800181,,,,-0.026179938779914945,0.03839724354387525,-0.054105206811824215,x,
1659956800196,-0.5,4.6000000000000005,8.4,-0.015707963267948967,0.05235987755982989,-0.022689280275926284,x,
1659956800213,,,,0.031415926535897934,0.010471975511965978,0,x,
1659956800230,-0.5,4.6000000000000005,8.3,,,,x,
1659956800233,,,,0.0471238898038469,-0.005235987755982989,0.008726646259971648,x,
1659956800249,-0.5,4.6000000000000005,8.4,,,,x,
1659956800269,-0.4,4.6000000000000005,8.700000000000001,,,,x,
1659956800279,,,,-0.048869219055841226,0.017453292519943295,0.026179938779914945,x,
1659956800294,-0.2,4.800000000000001,8.6,-0.03316125578789226,0.012217304763960306,0.0471238898038469,x,
1659956800329,-0.2,4.9,8.1,,,,x,
1659956800333,,,,0.059341194567807204,0.059341194567807204,0.04537856055185257,x,
1659956800349,-0.2,4.9,7.800000000000001,,,,x,
1659956800354,,,,0.020943951023931956,0.008726646259971648,0.04014257279586958,x,
1659956800369,-0.1,5,8.1,,,,x,
1659956800389,-0.1,4.9,8.4,,,,x,
1659956800394,,,,-0.006981317007977318,-0.05061454830783556,0.017453292519943295,x,
1659956800410,-0.30000000000000004,4.800000000000001,8.5,,,,x,
1659956800413,,,,-0.024434609527920613,-0.048869219055841226,-0.012217304763960306,x,
1659956800429,-0.4,4.6000000000000005,8.6,,,,x,
1659956800434,,,,-0.03490658503988659,-0.03316125578789226,-0.026179938779914945,x,
1659956800450,-0.4,4.6000000000000005,8.700000000000001,,,,x,
1659956800454,,,,0.008726646259971648,-0.020943951023931956,0.006981317007977318,x,
1659956800472,-0.5,4.6000000000000005,8.5,,,,x,
1659956800490,-0.30000000000000004,4.7,8.4,,,,x,
1659956800494,,,,0.04363323129985824,-0.022689280275926284,0.031415926535897934,x,
1659956800510,-0.1,5,8.1,,,,x,
1659956800515,,,,0.059341194567807204,-0.026179938779914945,0.05759586531581288,x,
1659956800530,0,5,8.200000000000001,,,,x,
1659956800534,,,,0.03316125578789226,-0.020943951023931956,0.06283185307179587,x,
1659956800550,0,5,8.4,,,,x,
1659956800554,,,,-0.031415926535897934,-0.008726646259971648,0.04014257279586958,x,
1659956800570,0,4.800000000000001,8.700000000000001,,,,x,
1659956800575,,,,-0.06981317007977318,-0.012217304763960306,0.006981317007977318,x,
1659956800930,-0.2,4.800000000000001,8.700000000000001,,,,x,
1659956800934,,,,-0.005235987755982989,-0.008726646259971648,0.003490658503988659,x,
1659956800949,-0.2,4.800000000000001,8.6,,,,x,
1659956800953,,,,0.010471975511965978,-0.015707963267948967,0,x,
1659956800969,-0.2,4.800000000000001,8.700000000000001,,,,x,
1659956800980,,,,0.019198621771937624,-0.026179938779914945,-0.006981317007977318,x,
1659956800989,-0.2,4.800000000000001,8.700000000000001,,,,x,
1659956801002,,,,0.024434609527920613,-0.0017453292519943296,-0.010471975511965978,x,
1659956801016,-0.30000000000000004,4.6000000000000005,8.5,0.022689280275926284,0.024434609527920613,-0.015707963267948967,x,
1659956801049,-0.30000000000000004,4.7,8.4,,,,x,
1659956801053,,,,0.015707963267948967,0.05235987755982989,0.013962634015954637,x,
1659956801069,-0.30000000000000004,4.7,8.3,,,,x,
1659956801082,,,,0.019198621771937624,0.027925268031909273,0.015707963267948967,x,
1659956801089,-0.4,4.7,8.3,,,,x,
1659956801098,,,,0.013962634015954637,0.010471975511965978,0.008726646259971648,x,
1659956801113,-0.4,4.7,8.3,,,,x,
1659956801114,,,,0,0.005235987755982989,0.010471975511965978,x,
1659956801149,-0.2,4.800000000000001,8.200000000000001,-0.006981317007977318,0.013962634015954637,0.029670597283903602,x,
1659956801169,-0.1,4.800000000000001,8,,,,x,
1659956801180,,,,0.013962634015954637,-0.003490658503988659,0.05235987755982989,x,
1659956801189,-0.2,4.800000000000001,8,,,,x,
1659956801199,,,,-0.05061454830783556,-0.04363323129985824,0.020943951023931956,x,
1659956801217,-0.2,4.800000000000001,8.6,,,,x,
1659956801218,,,,-0.0645771823237902,-0.08377580409572782,0.024434609527920613,x,
1659956801233,,,,-0.048869219055841226,-0.08552113334772216,0.03316125578789226,x,
1659956801249,-0.1,4.800000000000001,8.6,,,,x,
1659956801254,,,,-0.04188790204786391,-0.06806784082777885,0.03316125578789226,x,
1659956801269,-0.1,4.800000000000001,8.700000000000001,,,,x,
1659956801277,,,,-0.05235987755982989,-0.020943951023931956,0.03490658503988659,x,
1659956801289,0,4.800000000000001,8.700000000000001,,,,x,
1659956801294,,,,-0.027925268031909273,-0.026179938779914945,0.031415926535897934,x,
1659956801309,0,4.800000000000001,8.700000000000001,,,,x,
1659956801313,,,,-0.003490658503988659,-0.04363323129985824,0.013962634015954637,x,
1659956801329,-0.1,4.800000000000001,8.700000000000001,,,,x,
1659956801409,-0.1,4.7,8.4,,,,x,
1659956801414,,,,0.027925268031909273,-0.012217304763960306,0.010471975511965978,x,
1659956801429,-0.1,4.800000000000001,8.3,,,,x,
1659956801434,,,,0.019198621771937624,0,0.006981317007977318,x,
1659956801449,-0.1,4.800000000000001,8.3,,,,x,
1659956801469,-0.1,4.800000000000001,8.4,,,,x,
1659956801474,,,,-0.027925268031909273,0.005235987755982989,-0.0017453292519943296,x,
1659956801489,-0.1,4.800000000000001,8.4,,,,x,
1659956801494,,,,-0.04537856055185257,0.015707963267948967,-0.010471975511965978,x,
1659956801509,-0.2,4.7,8.3,,,,x,
1659956801529,-0.1,4.7,8.5,,,,x,
1659956801534,,,,-0.03839724354387525,-0.022689280275926284,-0.013962634015954637,x,
1659956801549,-0.2,4.6000000000000005,8.6,,,,x,
1659956801950,-1.2000000000000002,4.5,9.9,,,,,
1659956801953,,,,0.2775073510670984,-0.11344640137963143,-0.09599310885968813,,
1659956801969,1,6.1000000000000005,10.3,,,,,x
1659956801981,,,,0.3420845333908886,0.23911010752322315,0.17278759594743862,,x
1659956801989,0.8,5.5,11.8,,,,,x
1659956802007,,,,0.7679448708775051,0.3193952531149623,-0.153588974175501,,x
1659956802015,-0.30000000000000004,1.1,10.700000000000001,1.2828170002158323,-0.19722220547535924,-0.2844886680750757,,x
1659956802033,,,,1.551597705022959,0.5585053606381855,0.5235987755982989,,x
1659956802049,0.8,6.2,3.5,,,,,x
1659956802069,4.1000000000000005,8.3,3.9000000000000004,,,,,x
1659956802073,,,,0.5864306286700948,1.5690509975429023,0.5811946409141118,,x
1659956802089,2.2,7.800000000000001,6.4,,,,,x
1659956802098,,,,-1.2932889757277983,0.5393067388662478,-1.233947781159991,,x
1659956802122,-12.5,3.5,9.5,-1.2147491593880535,0.5969026041820608,-1.520181778487061,,x
1659956802134,,,,-0.8779006137531478,0.26529004630313807,-0.24434609527920614,,x
1659956802149,-2.5,-0.7000000000000001,8.700000000000001,,,,,x
1659956802153,,,,0.005235987755982989,-0.7906341511534313,1.8552849948699723,,x
1659956802169,-0.4,6.6000000000000005,8.6,,,,,x
1659956802189,2.8000000000000003,8.200000000000001,7.9,,,,,x
1659956802199,,,,1.8308503853420517,-3.837979025135531,0.6754424205218056,,x
1659956802215,1.4000000000000001,5.800000000000001,8,2.2671826983406342,-5.150466622635267,-0.10995574287564276,,x
1659956802249,5.2,7.6000000000000005,7.800000000000001,,,,,x
1659956802253,,,,4.443608275577563,-10.475466170469966,-0.7819075048934596,,x
1659956802269,6,8.4,5.7,,,,,x
1659956802273,,,,7.344345492392139,-16.022122533307947,-1.710422666954443,,x
1659956802289,11.3,9.4,14.5,,,,,x
1659956802296,,,,10.402162341886203,-19.78854305911171,-3.2114058236695664,,x
1659956802313,-4.2,0.5,8.8,,,,,x
1659956802329,-8.8,0.6000000000000001,-6.5,,,,,x
1659956802333,,,,11.564551623714427,-15.315264186250243,-4.017747938090947,,x
1659956802349,-17.7,0.30000000000000004,-10.4,,,,,x
1659956802429,-10.5,-3.5,24,,,,,x
1659956802433,,,,-18.762289458939044,20.013690532618977,5.9323741275287265,,x
1659956802449,8.6,1,32,,,,,x
1659956802453,,,,-15.74985116999683,19.223056381465547,5.55887366760194,,x
1659956802469,26.3,11.9,24.700000000000003,,,,,x
1659956802489,17.1,6.2,10.700000000000001,,,,,x
1659956802494,,,,6.257005368399671,-9.639453458764683,-1.768018532270256,,x
1659956802509,7.5,2.3000000000000003,14.200000000000001,,,,,x
1659956802514,,,,11.691960659110014,-19.078194053550018,-5.977752688080579,,x
1659956802529,4.7,3.8000000000000003,12.8,,,,,x
1659956802549,0.7000000000000001,2.9000000000000004,12,,,,,x
1659956802554,,,,10.430087609918113,-19.242255003237485,-6.74395222970609,,x
1659956802569,-17.6,-2.4000000000000004,3.8000000000000003,,,,,x
1659956802574,,,,4.768239516448508,-4.839798015780276,-3.818780403363593,,x
1659956802811,-32.300000000000004,-11.4,6.1000000000000005,10.01295391869147,-19.580848878124385,-8.412486994612669,,x
1659956802812,-32.7,-9.600000000000001,-15.600000000000001,6.775368156241988,-11.15439924949576,-6.277949319423604,,x
1659956802823,,,,-1.8849555921538759,8.382816397328765,0.6021385919380438,,x
1659956802829,-5.6000000000000005,-14.600000000000001,-1.1,,,,,x
1659956802849,-7.5,-15,38.5,,,,,x
1659956802854,,,,-18.702948264371237,20.013690532618977,10.857693276656724,,x
1659956802963,15.8,3.5,21.1,13.507103081184116,-12.805480721882397,-3.91826417072727,,x
1659956803001,,,,8.33220184902093,-19.392353318908995,-8.194320838113377,,x
1659956803011,-30,-10.100000000000001,10.5,,,,,x
1659956803021,,,,6.731734924942129,-13.163273218541233,-8.831366015091307,,x
1659956803036,-36.7,-10.100000000000001,-17.7,,,,,x
1659956803061,,,,-6.073745796940267,14.503686084072879,4.286528642898073,,x
1659956803073,-4.6000000000000005,-19.700000000000003,45.7,-15.372860051566056,19.823449644151594,10.59414855960558,,x
1659956803089,6.4,-19.900000000000002,70.9,,,,,x
1659956803093,,,,-13.644984092091669,19.174187162409705,12.594295882391082,,x
1659956803109,45.300000000000004,8.1,59.2,,,,,x
1659956803122,,,,-2.0298179200694055,10.447540902438057,9.468411192069238,,x
1659956803141,11.200000000000001,5.5,-20.1,10.149089600347027,-3.6861353802120242,1.3596114873035827,,x
1659956803155,3.4000000000000004,0.5,-12,10.770426814057007,-15.727161889720904,-4.270820679630124,,x
1659956803174,25,13.200000000000001,15.4,6.756169534470049,-19.91769742375929,-4.4505895925855405,,x
1659956803209,14.200000000000001,7.4,18.7,,,,,x
1659956803227,,,,5.1993358416911075,-17.01870553619671,-3.7995817815916557,,x
1659956803236,-18.8,-7,2.1,,,,,x
1659956803237,,,,2.4958208303518914,-5.25693170700692,-3.0072023011862297,,x
1659956803276,-4,-8.8,12.9,-2.7244589623631486,10.618583169133501,0.7609635538695277,,x
1659956803289,-4,-9.9,41.7,,,,,x
1659956803293,,,,-15.404275978101953,20.013690532618977,8.950048404226923,,x
1659956803331,28.5,19.1,9.3,-13.948671381938683,19.291124222293323,9.36020077844559,,x
1659956803334,17.3,9.600000000000001,-28.8,,,,,x
1659956803339,,,,0.2844886680750757,5.731661263549379,5.696754678509492,,x
1659956803354,,,,12.079423753052755,-12.30282589730803,-1.1466813185602744,,x
1659956803449,-17.2,-1.6,8,,,,,x
1659956803454,,,,0.6911503837897545,0.14311699866353503,-1.663298777150596,,x
1659956803469,-19.900000000000002,-4.5,-4.4,,,,,x
1659956803474,,,,-7.4141586624719125,15.364133405306083,3.553490357060455,,x
1659956803489,-7.9,-7.1000000000000005,7.5,,,,,x
1659956803509,0.4,-5.5,29.700000000000003,,,,,x
1659956803517,,,,-15.001104920891263,19.376645355641045,7.710864635310948,,x
1659956803693,-15.3,-5.6000000000000005,-10.600000000000001,0.1954768762233649,3.7891098060796895,-1.6912240451825054,,x
1659956803694,-0.7000000000000001,-9.3,21.400000000000002,-8.766788832767517,17.336355460059675,5.192354524683131,,x
1659956803716,25.1,9,50,-15.276866942706366,19.404570623672956,8.065166473465798,,x
1659956803761,19.700000000000003,4.9,-7.1000000000000005,4.577998627981127,-2.0245819323134224,0.8604473212332044,,x
1659956803779,21.8,3.4000000000000004,27.6,,,,,x
1659956803780,,,,10.485938145981931,-15.769049791768769,-5.555383009097951,,x
1659956803794,,,,9.721483933608416,-20.004963886359004,-8.230972752405258,,x
1659956803809,15.4,4.2,32.1,,,,,x
1659956803824,,,,8.902924514423075,-19.943877362539205,-8.314748556500986,,x
1659956803829,-19.200000000000003,-9.1,17.900000000000002,,,,,x
1659956803841,,,,6.927211801165494,-14.618877814704504,-7.906341511534313,,x
1659956803859,-8.8,-7,-4.7,1.2985249634837812,2.261946710584651,-3.715805977495928,,x
1659956804041,,,,6.876597252857659,-13.61705882405976,-8.190830179609389,,x
1659956804057,-21.200000000000003,-2.3000000000000003,-14.5,0.17976891295541594,4.675737066092809,-3.5831609543443586,,x
1659956804072,-1.3,-6.800000000000001,5,,,,,x
1659956804075,,,,-8.166395570081468,18.02401518534544,3.7786378305677237,,x
1659956804096,2.6,-4.4,34.4,,,,,x
1659956804097,,,,-14.493214108560913,20.013690532618977,7.545058356371487,,x
1659956804120,,,,-16.578882564694137,19.819958985647606,7.101744726364927,,x
1659956804129,12.5,2.9000000000000004,45,,,,,x
1659956804144,,,,-10.077531101015259,13.601350860791811,5.1487212933832724,,x
1659956804152,26.900000000000002,15.5,24.5,,,,,x
1659956804176,5.300000000000001,-0.2,15.700000000000001,1.3945180723434694,0.5305800926062761,1.7558012275062955,,x
1659956804176,,,,10.105456369047168,-12.983504305585818,-3.844960342143508,,x
1659956804194,-2.5,2.1,18.8,,,,,x
1659956804195,,,,12.383111042899769,-19.77283509584376,-7.323401541368207,,x
1659956804216,,,,11.281808284891346,-19.727456535291907,-6.913249167149539,,x
1659956804233,-16.8,-2,-11.4,,,,,x
1659956804235,,,,6.668903071870333,-10.852457288900741,-4.106759729942658,,x
1659956804253,,,,-2.935643801854462,9.810495725460127,0.8709192967451704,,x
1659956804269,-0.6000000000000001,-0.6000000000000001,3,,,,,x
1659956804289,8.4,1.4000000000000001,17.8,,,,,x
1659956804293,,,,-13.681636006383549,19.43075056245287,6.342526501747393,,x
1659956804309,18.900000000000002,9.200000000000001,29.200000000000003,,,,,x
1659956804314,,,,-10.362019769090335,12.337732482347915,4.310963252425994,,x
1659956804329,25.8,16.3,20.5,,,,,x
1659956804339,,,,8.246680715673207,-15.301301552234287,-3.743731245527837,,x
1659956804355,-2.1,-4.3,13.4,9.878563566287905,-19.53896097607652,-7.096508738608944,,x
1659956804571,-24.200000000000003,-8.6,0.6000000000000001,5.825909043157072,-12.41627229868766,-5.935864786032715,,x
1659956804583,,,,-1.36659280431156,7.394960040699974,-0.34732052114687156,,x
1659956804593,3.8000000000000003,-5.7,26.6,-9.407324668249437,19.181168479417682,5.995205980600522,,x
1659956804613,,,,-13.882348870362897,20.013690532618977,8.564330639536175,,x
1659956804629,13.5,-0.2,37.4,,,,,x
1659956804640,,,,-12.21032344695233,18.121753623457124,7.55029434412747,,x
1659956804657,24.6,14.4,-7.4,-3.085742117525975,5.750859885321316,4.1643555952584705,,x
1659956804674,20.1,6,4.800000000000001,6.878342582109653,-10.564477962321677,-1.4538592669112766,,x
1659956804693,,,,9.457939216557271,-19.350465416861134,-5.878268920716902,,x
1659956804709,16,4.3,24.3,,,,,x
1659956804713,,,,8.016297254409956,-20.013690532618977,-6.7823494732499645,,x
1659956804729,-6.6000000000000005,-2,27.1,,,,,x
1659956804746,,,,6.258750697651666,-16.475908138826473,-5.6635934227216,,x
1659956804756,-3.1,-5.800000000000001,10.600000000000001,0.4991641660703783,2.2863813201125716,-2.0036379812894904,,x
1659956804773,5.9,-4.7,36,-7.951720072086165,18.3451557677124,4.495968153137393,,x
1659956804792,21.6,5,40,,,,,x
1659956804793,,,,-12.088150399312728,19.55815959784846,8.758062186507546,,x
1659956804813,,,,-4.457570909593517,10.75122819228507,5.764822519337271,,x
1659956804865,23.6,4.4,10.3,7.892378877518358,-17.500416409747142,-5.047492196767601,,x
1659956804875,22.900000000000002,8,29.1,6.054547175168329,-20.013690532618977,-6.243042734383717,,x
1659956804960,5.9,-4.5,30.3,-10.171778880622952,19.805996351631652,6.232570758871751,,x
1659956804973,21.5,6.9,44.2,-13.076006755941517,20.01019987411499,8.496262798708397,,x
1659956804993,,,,-8.724900930719654,15.922638765944269,6.82074671679384,,x
1659956805009,29.200000000000003,16.3,8.6,,,,,x
1659956805013,,,,2.9513517651224115,-0.16929693744344998,1.5114551322270895,,x
1659956805029,22.700000000000003,11.3,-13.600000000000001,,,,,x
1659956805039,,,,9.796533091444172,-15.85457092511649,-4.729842272904633,,x
1659956805054,24.900000000000002,4.2,19.8,,,,,x
1659956805069,25.200000000000003,6.300000000000001,23.700000000000003,,,,,x
1659956805075,,,,7.7248272693269024,-20.001473227855016,-8.548622676268227,,x
1659956805092,-7.5,-7.7,15.4,,,,,x
1659956805093,,,,6.709045644666203,-18.270106609876642,-9.555677654668955,,x
1659956805129,-37.800000000000004,-7.2,-3.8000000000000003,,,,,x
1659956805134,,,,3.652974124424132,-5.269149011770881,-6.447246256867054,,x
1659956805149,-38.7,-7.800000000000001,-16.8,,,,,x
1659956805156,,,,-2.4312436480281012,7.6166168557032545,0.13264502315156904,,x
1659956805172,-14.4,-23,-2.6,,,,,x
1659956805173,,,,-11.15439924949576,17.683675981206548,7.92903079181024,,x
1659956805189,-8.1,-29,52.400000000000006,,,,,x
1659956805197,,,,-18.23694535408875,19.978783947579092,12.000883936713011,,x
1659956805209,-10.200000000000001,-23.1,73.60000000000001,,,,,x
1659956805213,,,,-19.34173877060116,20.013690532618977,12.740903539558605,,x
1659956805229,28.3,-9.3,70.8,,,,,x
1659956805240,,,,0.14835298641951802,8.737118235483614,10.567968620825665,,x
1659956805249,40.2,14.4,-6.6000000000000005,,,,,x
1659956805254,,,,12.184143508172415,-6.2936572826915524,3.000220984178253,,x
1659956805270,20.8,12.100000000000001,-56.7,,,,,x
1659956805273,,,,10.85943860590872,-18.442894205824082,-3.885102914939378,,x
1659956805595,26.400000000000002,14,6.1000000000000005,-15.170401858334714,18.889698494334628,10.10196571054318,,x
1659956805595,25.200000000000003,8.5,75.8,-12.103858362580675,12.288863263292075,9.222319767538037,,x
1659956805614,,,,2.035053907825388,-0.5532693728822025,3.7419859162758424,,x
1659956805629,12.700000000000001,1.3,-26.3,,,,,x
1659956805643,,,,10.377727732358284,-9.152506597458265,-2.5970499269675624,,x
1659956805649,-9.700000000000001,-7.9,6.300000000000001,,,,,x
1659956805663,,,,5.253441048502932,-10.79137076508094,-5.46637121724624,,x
1659956805676,-11.9,-7.300000000000001,20.200000000000003,-5.26042236551091,5.510004448546098,1.2828170002158323,,x
1659956805694,3.1,-3.6,29.700000000000003,-6.197664173831864,8.375835080320787,4.352851154473858,,x
1659956805715,20.5,10.8,21.200000000000003,-2.876302607286655,5.379104754646524,5.0317842334996525,,x
1659956805761,-0.5,0.6000000000000001,-2.2,3.6931166972200016,-0.9686577348568529,-0.9651670763528643,,x
1659956805779,-4.3,-0.8,8.3,1.663298777150596,-1.7488199104983182,-2.2113321622768156,,x
1659956805820,-1.7000000000000002,-0.1,15.9,-0.49741883681838395,-1.5132004614790837,-1.541125729510993,,x
1659956805831,-0.8,0.5,16.400000000000002,-1.1082840750163994,-0.6667157742618339,-0.7888888219014369,,x
1659956805843,,,,-0.17976891295541594,-0.5009094953223726,-0.5009094953223726,,x
1659956805849,0.6000000000000001,1.7000000000000002,14,,,,,x
1659956805861,,,,1.244419756671957,-1.2932889757277983,-0.5602506898901798,,x
1659956805874,-0.9,1,8.4,2.1450096507010312,-1.7715091907742446,-0.6702064327658226,,x
1659956805893,,,,2.035053907825388,-1.403244718603441,-0.6876597252857659,,x
1659956805909,-2.1,1.2000000000000002,7,,,,,x
1659956805913,,,,1.460840583919254,-0.8307767239493009,-0.44505895925855404,,x
1659956805929,-0.9,0.6000000000000001,5.9,,,,,x
1659956805941,,,,1.228711793404008,-1.0663961729685354,-0.03316125578789226,,x
1659956806029,0.6000000000000001,0.7000000000000001,6.7,,,,,
1659956806039,,,,-0.38571776469074687,0.9145525280450287,-0.17453292519943295,,
1659956806049,1.5,-0.1,7.2,,,,x,
1659956806054,,,,-0.14835298641951802,0.29670597283903605,-0.09250245035569947,x,
1659956806071,2.3000000000000003,0,8.200000000000001,,,,x,
1659956806091,2.4000000000000004,-0.30000000000000004,7.2,,,,x,
1659956806094,,,,0.2234021442552742,-0.5567600313861911,0.020943951023931956,x,
1659956806109,1.3,0.30000000000000004,7.9,,,,x,
1659956806113,,,,-0.6126105674500096,0.6544984694978736,-0.21467549799530253,x,
1659956806129,0.7000000000000001,-0.30000000000000004,7.2,,,,x,
1659956806138,,,,-0.7592182246175334,0.6736970912698113,-0.11519173063162576,x,
1659956806149,0.9,-0.4,6.5,,,,x,
1659956806156,,,,-0.7539822368615504,0,0.22165681500327986,x,
1659956806335,0.8,0.9,10.200000000000001,-0.8098327729253689,0.5427973973702365,0.22514747350726852,x,
1659956806349,0.5,0.7000000000000001,10.700000000000001,,,,x,
1659956806361,,,,-1.0262536001726659,0.41015237421866746,0.1466076571675237,x,
1659956806369,0,0.5,11.100000000000001,,,,x,
1659956806389,-0.4,0,11.3,,,,x,
1659956806394,,,,-0.38746309394274114,-0.22165681500327986,0.005235987755982989,x,
1659956806421,0.1,-0.8,10.600000000000001,-0.031415926535897934,-0.41538836197465046,0.11519173063162576,x,
1659956806596,1,0.8,8.6,0.23387411976724015,-0.3368485456349056,0.2181661564992912,x,
1659956806613,,,,0.13089969389957473,-0.3822271061867582,0.16929693744344998,x,
1659956806629,1,0.7000000000000001,8.9,,,,x,
1659956806633,,,,-0.0471238898038469,-0.19373154697137057,0.14486232791552936,x,
1659956806649,0.9,0.5,9.3,,,,x,
1659956806653,,,,-0.21991148575128552,0.0890117918517108,0.1361356816555577,x,
1659956806669,0.7000000000000001,0.30000000000000004,9.3,,,,x,
1659956806680,,,,-0.312413936106985,0.27052603405912107,0.158824961931484,x,
1659956806696,1.1,0.5,9.5,-0.3141592653589793,0.21642082724729686,0.16755160819145565,x,
1659956806712,1.2000000000000002,0.4,9.600000000000001,,,,x,
1659956806713,,,,-0.23911010752322315,0.017453292519943295,0.11344640137963143,x,
1659956806733,,,,-0.10995574287564276,-0.16057029118347832,0.012217304763960306,x,
1659956806749,0.9,0.30000000000000004,9.600000000000001,,,,x,
1659956806761,,,,0.010471975511965978,-0.2792526803190927,-0.0767944870877505,x,
1659956806776,0.6000000000000001,-0.2,9.3,,,,x,
1659956806777,,,,0.031415926535897934,-0.27401669256310973,-0.10821041362364843,x,
1659956806795,0.7000000000000001,-0.1,10,-0.09599310885968813,-0.19198621771937627,-0.0767944870877505,x,
1659956806814,,,,-0.20420352248333656,-0.1239183768915974,-0.0017453292519943296,x,
1659956806829,1,0,10.3,,,,x,
1659956806833,,,,-0.1954768762233649,-0.08552113334772216,0.04188790204786391,x,
1659956806849,1.1,0.1,10.5,,,,x,
1659956806869,0.9,-0.2,10,,,,x,
1659956806879,,,,-0.07155849933176751,0.07330382858376185,-0.013962634015954637,x,
1659956806897,0.7000000000000001,-0.1,9.8,-0.059341194567807204,0.1291543646475804,-0.019198621771937624,x,
1659956806929,0.8,-0.1,9.600000000000001,,,,x,
1659956806933,,,,0.003490658503988659,0.04014257279586958,-0.008726646259971648,x,
1659956806949,0.7000000000000001,0,9.5,,,,x,
1659956807198,1.3,0.2,9.8,0.0017453292519943296,-0.04014257279586958,0.008726646259971648,x,
1659956807216,1.3,0.1,9.700000000000001,0,-0.029670597283903602,-0.054105206811824215,x,
1659956807217,0.9,0,9.4,-0.027925268031909273,0.06283185307179587,-0.14311699866353503,x,
1659956807248,0.7000000000000001,-0.1,9.4,-0.06981317007977318,0.1466076571675237,-0.20420352248333656,x,
1659956807268,,,,-0.08552113334772216,0.153588974175501,-0.20943951023931956,x,
1659956807269,0.5,-0.1,9.4,,,,x,
1659956807280,,,,-0.06283185307179587,0.09075712110370514,-0.1832595714594046,x,
1659956807296,0.4,-0.30000000000000004,9.600000000000001,-0.010471975511965978,0,-0.14486232791552936,x,
1659956807314,0.4,-0.30000000000000004,9.600000000000001,0.024434609527920613,-0.03839724354387525,-0.08552113334772216,x,
1659956807333,,,,0.008726646259971648,0.019198621771937624,-0.026179938779914945,x,
1659956807349,0.7000000000000001,0,9.5,,,,x,
1659956807362,,,,-0.03839724354387525,0.12217304763960307,0.020943951023931956,x,
1659956807369,0.8,-0.1,9.5,,,,x,
1659956807383,,,,-0.0645771823237902,0.16057029118347832,0.020943951023931956,x,
1659956807397,0.7000000000000001,-0.1,9.5,-0.059341194567807204,0.15707963267948966,0.003490658503988659,x,
1659956807417,0.8,-0.1,9.700000000000001,-0.04188790204786391,0.048869219055841226,-0.003490658503988659,x,
1659956807433,,,,-0.006981317007977318,-0.08203047484373349,-0.015707963267948967,x,
1659956807449,0.9,-0.1,9.8,,,,x,
1659956807601,0.4,-0.1,9.200000000000001,,,,x,
1659956807602,,,,0.0471238898038469,0.061086523819801536,0.010471975511965978,x,
1659956807615,0.5,-0.1,9.1,-0.013962634015954637,0.11693705988362008,0.04014257279586958,x,
1659956807633,,,,-0.03665191429188092,0.0890117918517108,0.06283185307179587,x,
1659956807649,0.7000000000000001,0,9.200000000000001,,,,x,
1659956807653,,,,-0.04014257279586958,0.026179938779914945,0.054105206811824215,x,
1659956807669,0.7000000000000001,0,9.4,,,,x,
1659956807673,,,,-0.05061454830783556,-0.010471975511965978,0.008726646259971648,x,
1659956807689,0.6000000000000001,-0.2,9.700000000000001,,,,x,
1659956807697,,,,-0.04188790204786391,-0.0471238898038469,-0.04014257279586958,x,
1659956807713,0.2,-0.4,9.4,,,,x,
1659956807714,,,,-0.012217304763960306,-0.029670597283903602,-0.04014257279586958,x,
1659956807734,,,,-0.010471975511965978,0.017453292519943295,0.022689280275926284,x,
1659956807749,0.4,-0.30000000000000004,9.4,,,,x,
1659956807754,,,,-0.029670597283903602,0.024434609527920613,0.09250245035569947,x,
1659956807769,0.7000000000000001,-0.1,9.4,,,,x,
1659956807774,,,,-0.03665191429188092,0.012217304763960306,0.12740903539558607,x,
1659956807789,0.8,0,9.5,,,,x,
1659956807798,,,,-0.022689280275926284,-0.026179938779914945,0.11868238913561441,x,
1659956807812,0.9,0,9.5,,,,x,
1659956807814,,,,-0.010471975511965978,-0.06981317007977318,0.0767944870877505,x,
1659956807829,0.9,-0.1,9.9,,,,x,
1659956807833,,,,-0.012217304763960306,-0.0942477796076938,0.03316125578789226,x,
1659956807849,0.8,-0.2,9.700000000000001,,,,x,
1659956807854,,,,-0.015707963267948967,-0.029670597283903602,0.0017453292519943296,x,
1659956807869,0.7000000000000001,-0.30000000000000004,9.600000000000001,,,,x,
1659956807876,,,,-0.015707963267948967,0.012217304763960306,-0.0017453292519943296,x,
1659956807894,0.9,-0.1,9.600000000000001,,,,x,
1659956807895,,,,0.04014257279586958,-0.08377580409572782,0.017453292519943295,x,
1659956808234,0.7000000000000001,-0.2,9.600000000000001,-0.022689280275926284,0.017453292519943295,-0.03316125578789226,x,
1659956808253,,,,-0.013962634015954637,0.020943951023931956,-0.017453292519943295,x,
1659956808269,0.8,-0.1,9.600000000000001,,,,x,
1659956808283,,,,0.015707963267948967,-0.026179938779914945,-0.010471975511965978,x,
1659956808289,0.8,-0.1,9.9,,,,x,
1659956808301,,,,0.024434609527920613,-0.04363323129985824,-0.015707963267948967,x,
1659956808320,0.7000000000000001,-0.1,9.600000000000001,0.017453292519943295,0.012217304763960306,-0.022689280275926284,x,
1659956808334,0.8,0,9.5,0.024434609527920613,0.07504915783575618,0.0017453292519943296,x,
1659956808353,,,,0.031415926535897934,0.029670597283903602,-0.0017453292519943296,x,
1659956808369,0.8,0,9.5,,,,x,
1659956808382,,,,0.048869219055841226,0.006981317007977318,-0.026179938779914945,x,
1659956808389,0.7000000000000001,0,9.4,,,,x,
1659956808400,,,,0.03839724354387525,0.024434609527920613,-0.04537856055185257,x,
1659956808435,0.5,-0.2,9.5,,,,x,
1659956808436,0.7000000000000001,-0.1,9.600000000000001,0.005235987755982989,0.03665191429188092,-0.04014257279586958,x,
1659956808436,,,,-0.015707963267948967,0.04188790204786391,-0.013962634015954637,x,
1659956808454,,,,-0.015707963267948967,0.0471238898038469,0.006981317007977318,x,
1659956808469,0.7000000000000001,-0.2,9.600000000000001,,,,x,
1659956808482,,,,0.0017453292519943296,0.04537856055185257,0.006981317007977318,x,
1659956808489,0.6000000000000001,-0.1,9.600000000000001,,,,x,
1659956808497,,,,0.022689280275926284,0.019198621771937624,0.008726646259971648,x,
1659956808516,0.7000000000000001,-0.1,9.5,0.048869219055841226,-0.024434609527920613,0.008726646259971648,x,
1659956808533,,,,0.0471238898038469,-0.019198621771937624,0.006981317007977318,x,
1659956808649,0.7000000000000001,0,9.600000000000001,,,,x,
1659956808653,,,,0.06283185307179587,0.017453292519943295,0.017453292519943295,x,
1659956808669,0.8,0.1,9.5,,,,x,
1659956808680,,,,0.07504915783575618,0.0017453292519943296,0.008726646259971648,x,
1659956808689,0.7000000000000001,0,9.4,,,,x,
1659956808695,,,,0.05759586531581288,0.022689280275926284,-0.006981317007977318,x,
1659956808711,0.5,-0.1,9.3,,,,x,
1659956808713,,,,0.020943951023931956,0.05759586531581288,-0.010471975511965978,x,
1659956808730,0.6000000000000001,0,9.5,,,,x,
1659956808733,,,,-0.020943951023931956,0.06981317007977318,0.006981317007977318,x,
1659956808749,0.7000000000000001,0,9.600000000000001,,,,x,
1659956808753,,,,-0.026179938779914945,0.05759586531581288,0.013962634015954637,x,
1659956808769,0.7000000000000001,0.1,9.700000000000001,,,,x,
1659956808950,0.6000000000000001,0,9.600000000000001,0.010471975511965978,0.006981317007977318,0.015707963267948967,x,
1659956808960,0.6000000000000001,0,9.5,0.020943951023931956,0.013962634015954637,0.006981317007977318,x,
1659956808988,0.7000000000000001,-0.1,9.600000000000001,0.010471975511965978,0.008726646259971648,0.020943951023931956,x,
1659956809000,,,,-0.0017453292519943296,0.05235987755982989,0.031415926535897934,x,
1659956809017,0.7000000000000001,0.1,9.600000000000001,-0.010471975511965978,0.054105206811824215,0.027925268031909273,x,
1659956809034,0.6000000000000001,0.1,9.5,0.015707963267948967,0.024434609527920613,0.013962634015954637,x,
1659956809172,0.4,-0.2,9.600000000000001,-0.04014257279586958,-0.026179938779914945,-0.003490658503988659,x,
1659956809201,,,,-0.04014257279586958,-0.03316125578789226,0,x,
1659956809218,0.5,-0.2,9.600000000000001,,,,x,
1659956809219,,,,-0.0645771823237902,0.024434609527920613,0.04363323129985824,x,
1659956809238,0.6000000000000001,-0.1,9.600000000000001,-0.06632251157578452,0.03665191429188092,0.06283185307179587,x,
1659956809253,0.7000000000000001,0,9.600000000000001,,,,x,
1659956809254,,,,-0.04363323129985824,0.003490658503988659,0.06283185307179587,x,
1659956809273,,,,-0.026179938779914945,-0.04014257279586958,0.05235987755982989,x,
1659956809289,0.7000000000000001,0,9.700000000000001,,,,x,
1659956809304,,,,-0.024434609527920613,-0.03665191429188092,0.03490658503988659,x,
1659956809309,0.7000000000000001,0,9.700000000000001,,,,x,
1659956809319,,,,-0.022689280275926284,0.006981317007977318,0.017453292519943295,x,
1659956809337,0.7000000000000001,-0.1,9.5,-0.017453292519943295,0.029670597283903602,0.019198621771937624,x,
1659956809353,0.8,0,9.5,-0.005235987755982989,0.024434609527920613,0.03316125578789226,x,
1659956809374,0.8,0,9.4,0.013962634015954637,-0.008726646259971648,0.026179938779914945,x,
1659956809400,,,,-0.0017453292519943296,0.0017453292519943296,-0.003490658503988659,x,
1659956809409,0.7000000000000001,0,9.4,,,,x,
1659956809416,,,,-0.05061454830783556,0.04188790204786391,-0.022689280275926284,x,
1659956809433,0.7000000000000001,-0.1,9.700000000000001,-0.08028514559173916,0.05585053606381855,-0.03665191429188092,x,
1659956809450,0.6000000000000001,-0.2,9.9,,,,x,
1659956809453,,,,-0.07330382858376185,0.059341194567807204,-0.05235987755982989,x,
1659956809469,0.5,-0.2,9.8,,,,x,
1659956809474,,,,-0.027925268031909273,0.04014257279586958,-0.048869219055841226,x,
1659956809489,0.5,-0.2,9.8,,,,x,
1659956809499,,,,0.012217304763960306,0.027925268031909273,-0.04363323129985824,x,
1659956809509,0.4,-0.2,9.600000000000001,,,,x,
1659956809516,,,,0.020943951023931956,0.05585053606381855,-0.04188790204786391,x,
1659956809531,0.4,-0.2,9.5,,,,x,
1659956809534,,,,0.010471975511965978,0.07504915783575618,-0.03316125578789226,x,
1659956809805,0.6000000000000001,0,9.5,0.08203047484373349,-0.06283185307179587,-0.022689280275926284,x,
1659956809806,0.6000000000000001,0,9.4,0.07155849933176751,-0.026179938779914945,-0.04363323129985824,x,
1659956809822,,,,0.048869219055841226,-0.013962634015954637,-0.04537856055185257,x,
1659956809864,0.7000000000000001,-0.1,9.700000000000001,0.04363323129985824,-0.022689280275926284,-0.04537856055185257,x,
1659956809875,1.1,0.6000000000000001,9.4,0.12740903539558607,-0.07330382858376185,-0.08552113334772216,x,
1659956809893,,,,0.21991148575128552,-0.17976891295541594,-0.21991148575128552,x,
1659956809909,0.8,0.1,9.1,,,,x,
1659956809919,,,,0.1832595714594046,-0.16580627893946132,-0.3193952531149623,x,
1659956809936,0,-0.9,9.4,0.06981317007977318,-0.1413716694115407,-0.32637657012293964,x,
1659956809953,0.2,0,10.5,,,,x,
1659956809954,,,,0.003490658503988659,-0.11868238913561441,-0.2111848394913139,x,
1659956809973,,,,0.05061454830783556,-0.16406094968746698,-0.0017453292519943296,x,
1659956809989,0.5,0.30000000000000004,10.4,,,,x,
1659956809993,,,,0.17976891295541594,-0.059341194567807204,0.06981317007977318,x,
1659956810009,0.8,0.2,10,,,,x,
1659956810023,,,,0.31590459461097364,0.03316125578789226,0.048869219055841226,x,
1659956810060,0.7000000000000001,0.8,11.200000000000001,0.39444441095071847,0.03839724354387525,0.013962634015954637,x,
1659956810291,0.8,1.2000000000000002,11.5,,,,,x
1659956810294,,,,-0.005235987755982989,-0.9896016858807849,-0.39269908169872414,,x
1659956810309,2.3000000000000003,1.2000000000000002,11.9,,,,,x
1659956810321,,,,0.15707963267948966,-0.6283185307179586,0.03316125578789226,,x
1659956810329,2.1,2.1,11.600000000000001,,,,,x
1659956810336,,,,0.7295476273336298,-0.8517206749732329,0.2426007660272118,,x
1659956810353,1.2000000000000002,1.2000000000000002,9.3,1.1623892818282235,-1.1205013797803596,0.30543261909900765,,x
1659956810374,,,,1.3788101090755205,-1.4433872913993107,0.5078908123303499,,x
1659956810389,3,2.1,7.2,,,,,x
1659956810409,5.800000000000001,4.3,6.300000000000001,,,,,x
1659956810417,,,,2.220058808536787,-3.637266161156183,0.9651670763528643,,x
1659956810434,7.7,5.300000000000001,5.2,,,,,x
1659956810435,,,,2.5394540616517496,-4.860741966804208,0.6544984694978736,,x
1659956810453,,,,2.530727415391778,-5.607742886657781,0.25656340004316647,,x
1659956810469,8.6,5.300000000000001,4.4,,,,,x
1659956810474,,,,2.4905848425959083,-6.1505402840280174,-0.10122909661567112,,x
1659956810489,8.4,5,5.4,,,,,x
1659956810493,,,,2.2968532956245378,-6.4280476350951155,-0.33859387488689996,,x
1659956810802,11.9,1,30.1,-9.862855603019957,19.926424070019262,5.775294494849237,,x
1659956810823,,,,-11.082840750163992,20.013690532618977,7.401941357707952,,x
1659956810839,16.8,7,38.6,,,,,x
1659956810840,,,,-10.067059125503294,19.884536167971397,6.661921754862356,,x
1659956810855,12.200000000000001,11.200000000000001,-18.1,-3.9426987802551907,14.128440294894098,4.2481313993541985,,x
1659956810874,,,,6.13134166225608,-1.7313666179783749,-0.16057029118347832,,x
1659956810889,3.9000000000000004,1.8,-5.300000000000001,,,,,x
1659956810894,,,,7.663740745507101,-13.521065715200072,-3.4993851502486306,,x
1659956810909,7.6000000000000005,4.4,9.5,,,,,x
1659956810922,,,,3.3370695298131583,-14.451326206513048,-3.3999013828849542,,x
1659956810929,14.700000000000001,9.3,11,,,,,x
1659956810938,,,,2.302089283380521,-13.13360262125733,-2.935643801854462,,x
1659956810957,1.6,4.9,16.8,3.3981560536329596,-14.474015486788975,-3.448770601940795,,x
1659956810972,-16.5,-6.4,14.5,,,,,x
1659956810973,,,,4.024729255098924,-13.880603541110903,-4.160864936754482,,x
1659956810993,,,,-5.941100773788698,13.896311504378852,0.8709192967451704,,x
1659956811013,-5.800000000000001,-4.800000000000001,14.600000000000001,,,,,x
1659956811022,,,,-11.461577197846763,19.956094667303166,5.225515780471023,,x
1659956811042,,,,-12.405800323175695,18.734364190907133,6.902777191637574,,x
1659956811057,26.1,19.1,22.200000000000003,-5.83289036016505,7.574728953655391,4.783947479716457,,x
1659956811072,16.3,11.5,-5.2,,,,,x
1659956811073,,,,5.525712411814047,-8.630653151111959,-0.34557519189487723,,x
1659956811093,,,,9.452703228801289,-17.317156838287737,-4.792674125976429,,x
1659956811109,20.5,5.1000000000000005,5,,,,,x
1659956811129,23.1,7.2,20.400000000000002,,,,,x
1659956811139,,,,6.124360345248102,-19.996237240099035,-7.782423134642715,,x
1659956811309,12.5,-11.8,53.5,,,,,x
1659956811316,,,,-13.264502315156905,18.072884404401282,10.656980412677376,,x
1659956811329,42.1,18,36.4,,,,,x
1659956811336,,,,-3.5185837720205684,7.991862644882035,9.13854396344231,,x
1659956811351,30.700000000000003,19.5,-28,,,,,x
1659956811354,,,,7.358308126408094,-4.509930787153348,1.9181168479417683,,x
1659956811369,19.5,2.3000000000000003,7,,,,,x
1659956811373,,,,8.841837990603274,-16.418312273510658,-5.06320016003555,,x
1659956811542,-21.8,-4.2,-8.6,2.5656340004316647,0.16406094968746698,-0.46949356878647464,,x
1659956811553,-9.1,-1.4000000000000001,-0.8,,,,,x
1659956811563,0.2,1.4000000000000001,3.6,1.9181168479417683,1.8727382873899157,5.605997557405787,,x
1659956811578,1,2,-6.7,3.1311206780778273,1.9477874452256718,6.190682856823887,,x
1659956811593,5.9,4,-15.5,4.665265090580843,1.296779634231787,5.6042522281537925,,x
1659956811614,,,,4.900884539600077,-0.0645771823237902,4.731587602156628,,x
1659956811629,3.5,2.9000000000000004,-13.700000000000001,,,,,x
1659956811641,,,,4.604178566761042,-1.0524335389525807,3.8955748904513436,,x
1659956811829,9.9,-5.4,2.4000000000000004,,,,,x
1659956811843,,,,2.7785641691749725,1.9093902016817965,-3.80132711084365,,x
1659956811849,10.200000000000001,-12.100000000000001,3.6,,,,,x
1659956811858,,,,3.5465090400524777,3.3807027611130165,-5.222025121967034,,x
1659956811874,19.400000000000002,-16.5,-6,5.525712411814047,6.541494036474747,-6.630505828326458,,x
1659956811893,,,,5.605997557405787,7.895869536022347,-7.250097712784445,,x
1659956811909,24.6,-14,-13.100000000000001,,,,,x
1659956811913,,,,4.7874381382204465,8.817403381075353,-7.993607974134029,,x
1659956811932,25.5,-8,-12,,,,,x
1659956811942,,,,3.3231068957972036,9.480628496833198,-8.733627576979625,,x
1659956811957,22,-6.9,-31,,,,,x
1659956811958,,,,2.4539329283040274,8.908160502179058,-9.578366934944881,,x
1659956811972,0.30000000000000004,-19.900000000000002,-29.200000000000003,,,,,x
1659956811973,,,,0.9913470151327792,6.604325889546543,-10.648253766417405,,x
1659956811994,,,,-2.981022362406315,4.968952380427856,-10.145598941843039,,x
1659956812009,-16.6,-19.900000000000002,-28.5,,,,,x
1659956812029,6.5,-19.1,-22.1,,,,,x
1659956812038,,,,-6.572909963010646,-7.168067237940711,-3.0630528372500483,,x
1659956812049,22,-23.400000000000002,2.8000000000000003,,,,,x
1659956812056,,,,-4.117231705454624,-17.91056878396581,-0.14835298641951802,,x
1659956812072,30.8,-0.8,14.8,,,,,x
1659956812073,,,,1.5899949485668343,-20.013690532618977,2.319542575900464,,x
1659956812089,25.3,2.2,-21,,,,,x
1659956812093,,,,5.618214862169747,-20.013690532618977,3.1468286413457762,,x
1659956812109,15.3,-0.6000000000000001,-18.7,,,,,x
1659956812113,,,,4.143411644234538,-19.952604008799177,3.3161255787892263,,x
1659956812129,17.2,5.1000000000000005,-13.8,,,,,x
1659956812138,,,,0.24958208303518914,-16.064010435355808,3.12413936106985,,x
1659956812153,-6,-2.4000000000000004,22.200000000000003,,,,,x
1659956812154,,,,-4.714134309636684,-5.9655353833166185,0.7190756518216638,,x
1659956812397,-21.400000000000002,-11.5,27.200000000000003,1.5358897417550101,-14.753268167108068,-4.422664324553631,,x
1659956812412,-23,-17.400000000000002,12.200000000000001,-2.3544491609403506,2.445206282044056,-1.8413223608540177,,x
1659956812413,,,,-6.140068308516051,18.19680278129288,3.673918075448064,,x
1659956812429,7.300000000000001,-15.200000000000001,18.3,,,,,x
1659956812442,,,,-7.805112414918642,20.013690532618977,9.487609813841175,,x
1659956812458,58.2,3.8000000000000003,38.400000000000006,-6.675884388878311,20.013690532618977,11.503465099894626,,x
1659956812476,48.5,16.3,-21.8,-2.986258350162298,19.697785938008003,9.60629220297679,,x
1659956812494,14.4,1.3,-59.5,3.680899392456041,10.128145649323095,4.038691889114879,,x
1659956812512,29.5,-6.4,-26.900000000000002,,,,,x
1659956812513,,,,6.07898178469625,-9.60978286148078,-1.2322024519079966,,x
1659956812533,,,,0.6789330790257943,-19.067722078038052,-1.6249015336067207,,x
1659956812562,33.7,6,7.2,-0.8796459430051421,-20.013690532618977,-1.9861846887695471,,x
1659956812576,6.6000000000000005,-11,-4.5,1.9058995431778079,-20.013690532618977,-5.1661745859032155,,x
1659956812623,-1.1,-7.4,9.8,,,,,x
1659956812633,-14.4,-15.4,13.3,-0.8779006137531478,-6.752678875966061,-1.5533430342749532,,x
1659956812633,,,,1.3020156219877699,-17.383479349863524,-4.2725660088821185,,x
1659956812860,4.800000000000001,-4.3,-2.6,0.8464846872172499,-7.358308126408094,-8.677777040915807,,x
1659956812871,-1.9000000000000001,-1.1,1.3,,,,,x
1659956812873,,,,-0.45727626402251437,-7.023204910025182,-7.630579489719209,,x
1659956812894,,,,-1.3945180723434694,-4.223696789826278,-6.3285638677314395,,x
1659956812909,-7.300000000000001,0.9,-11.200000000000001,,,,,x
1659956812913,,,,-2.5010568181078745,-1.387536755335492,-4.574507969477138,,x
1659956812929,-2.9000000000000004,5,-15.600000000000001,,,,,x
1659956812934,,,,-3.087487446777969,-2.626720524251466,-2.5586526834236873,,x
1659956812949,5.800000000000001,8.6,-6.6000000000000005,,,,,x
1659956812956,,,,-3.392920065876977,-4.5343653966812685,-1.5795229730548683,,x
1659956812973,9.9,12.4,3.3000000000000003,,,,,x
1659956812974,,,,-2.8885199120506155,-4.49073216538141,-2.2043508452688383,,x
1659956812990,6.5,10.200000000000001,-0.2,,,,,x
1659956812993,,,,-1.0978120995044334,-4.977679026687828,-3.694862026471996,,x
1659956813009,-2.1,5.300000000000001,-1.1,,,,,x
1659956813013,,,,0.5899212871740834,-6.30063859969953,-4.752531553180559,,x
1659956813030,-15.3,0.6000000000000001,-4.5,,,,,x
1659956813049,-37.800000000000004,-5.6000000000000005,-21.5,,,,,x
1659956813060,,,,-0.8953539062730911,-2.1258110289290935,-2.0263272615654166,,x
1659956813073,-8.5,-21.8,-13.8,-4.95848040491589,0.8813912722571364,3.0508355324860883,,x
1659956813095,,,,-10.527826048029796,2.202605516016844,7.873180255746421,,x
1659956813352,29.900000000000002,-3.4000000000000004,47.5,,,,,x
1659956813353,,,,-13.308135546456763,3.2986722862692828,13.206906449841092,,x
1659956813378,65.9,31.400000000000002,41.400000000000006,-8.831366015091307,1.4817845349431857,12.102113033328681,,x
1659956813395,59.300000000000004,19.3,14.700000000000001,-0.5375614096142535,-1.286307658719821,5.9323741275287265,,x
1659956813413,33.2,-9.5,10.8,5.618214862169747,-2.5185101106278176,-4.293509959906051,,x
1659956813433,,,,7.906341511534313,-3.6651914291880923,-12.636183784438947,,x
1659956813449,8.200000000000001,-32.9,19.5,,,,,x
1659956813461,,,,8.712683625955693,-4.780456821212469,-16.50732406536237,,x
1659956813480,-58.1,-38.1,5.800000000000001,9.801769079200154,-5.722934617289407,-16.650441064025905,,x
1659956813495,-65.4,-23.5,-40.2,9.526007057385051,-3.141592653589793,-13.01666556137371,,x
1659956813546,-10.8,-28.6,-9.4,-1.6545721308906245,3.7873644768276953,5.455899241734274,,x
1659956813560,-10.100000000000001,-37,26.700000000000003,-9.569640288684909,3.310889591033243,10.930997105240486,,x
1659956813582,,,,-14.140657599658057,4.134684997974567,13.05331747566559,,x
1659956813595,45.6,3.7,42,-13.142329267517303,3.3126349202852374,14.59269787592459,,x
1659956813612,76.2,37.4,29.5,,,,,x
1659956813613,,,,-8.703956979695722,2.387610416728243,14.158110892178001,,x
1659956813633,,,,-2.3719024534602937,0.7435102613495844,9.077457439622508,,x
1659956813649,50.900000000000006,13.700000000000001,14.8,,,,,x
1659956813663,,,,7.471754527787725,-3.6267941856442167,-10.288715940506574,,x
1659956813669,24.5,-12.3,17.6,,,,,x
1659956813683,,,,8.960520379738888,-4.4331363000655974,-14.957471689591404,,x
1659956813695,-52.6,-38.2,6.800000000000001,10.026916552707423,-4.752531553180559,-15.650367402633153,,x
1659956813712,-75.2,-24.6,-32,,,,,x
1659956813713,,,,8.641125126623926,-1.1676252695842064,-11.175343200519693,,x
1659956813869,27.700000000000003,-0.8,20.400000000000002,,,,,x
1659956813876,,,,-5.122541354603357,9.346238144429634,11.19454182229163,,x
1659956813894,22.900000000000002,12.200000000000001,10,-2.981022362406315,6.8923052161256075,7.588691587671345,,x
1659956813914,,,,0.41015237421866746,1.9442967867216832,3.141592653589793,,x
1659956813929,9.700000000000001,6.7,8.6,,,,,x
1659956813933,,,,3.0717794835100203,-2.1310470166850766,-0.4642575810304917,,x
1659956813949,-0.4,1.5,6,,,,,x
1659956813953,,,,3.7943457938356726,-2.8867745827986213,-1.7540558982543013,,x
1659956814110,2.8000000000000003,-0.30000000000000004,1.2000000000000002,-0.4171336912266448,2.764601535159018,0.34382986264288296,,x
1659956814121,11.700000000000001,9.600000000000001,23.6,,,,,x
1659956814123,,,,-0.7976154681614086,0.8168140899333463,0.8185594191853406,,x
1659956814134,,,,-2.858849314766712,-1.2897983172238097,0.5235987755982989,,x
1659956814149,9.5,1.3,29,,,,,x
1659956814173,-1,0.2,7.5,1.778490507782222,1.064650843716541,-0.9372418083209549,,x
1659956814200,,,,2.525491427635795,1.0000736613927508,-0.3089232776029963,,x
1659956814213,1.2000000000000002,3.9000000000000004,2.4000000000000004,2.0647245051092917,0.8342673824532896,0.10122909661567112,,x
1659956814383,,,,0.43982297150257105,0.4782202150464463,0.5253441048502933,x,
1659956814396,0.9,3.7,6.9,,,,x,
1659956814397,,,,0.36826447217080355,1.2409290981679684,0.36302848441482055,x,
1659956814416,1.1,3.4000000000000004,4.9,0.17278759594743862,1.6371188383706812,0.47472955654245763,x,
1659956814431,1.9000000000000001,4.1000000000000005,6.2,,,,x,
1659956814433,,,,-0.07504915783575618,1.6545721308906245,0.5235987755982989,x,
1659956814453,,,,-0.31590459461097364,1.0367255756846319,0.635299847725936,x,
1659956814469,2,4,7.300000000000001,,,,x,
1659956814500,1.7000000000000002,3.7,10,-0.6614797865058509,0.4415683007545654,0.35255650890285456,x,
1659956814516,1.1,3.5,10.100000000000001,-0.6091199089460211,0.3351032163829113,0.10646508437165411,x,
1659956814533,,,,-0.1884955592153876,-0.029670597283903602,-0.048869219055841226,x,
1659956814549,0.6000000000000001,3.2,9.9,,,,x,
1659956814553,,,,-0.026179938779914945,-0.10646508437165411,-0.013962634015954637,x,
1659956814569,0.9,3.2,9.600000000000001,,,,x,
1659956814580,,,,-0.006981317007977318,-0.006981317007977318,0.006981317007977318,x,
1659956814595,0.9,3.1,9.200000000000001,-0.029670597283903602,0.061086523819801536,-0.03490658503988659,x,
1659956814614,,,,0.024434609527920613,-0.04363323129985824,-0.0890117918517108,x,
1659956814629,0.7000000000000001,3.1,8.9,,,,x,
1659956814633,,,,0.06981317007977318,-0.11344640137963143,-0.09773843811168245,x,
1659956814649,0.6000000000000001,3.1,8.9,,,,x,
1659956814669,0.6000000000000001,3,8.9,,,,x,
1659956814679,,,,0.0471238898038469,-0.2059488517353309,-0.015707963267948967,x,
1659956814689,0.7000000000000001,2.9000000000000004,9.200000000000001,,,,x,
1659956814696,,,,0.05235987755982989,-0.23387411976724015,0.05235987755982989,x,
1659956814710,0.8,3.1,9.1,,,,x,
1659956814713,,,,0.06806784082777885,-0.2111848394913139,0.1117010721276371,x,
1659956814729,1,3.2,9.200000000000001,,,,x,
1659956814989,1.7000000000000002,3.3000000000000003,9,-0.28099800957108706,0.34557519189487723,0.2059488517353309,x,
1659956815000,1.7000000000000002,3.3000000000000003,9.200000000000001,-0.07504915783575618,-0.1361356816555577,0.14486232791552936,x,
1659956815000,,,,0.029670597283903602,-0.2775073510670984,0.08028514559173916,x,
1659956815015,1.2000000000000002,3,9.200000000000001,0.022689280275926284,-0.21467549799530253,0.07330382858376185,x,
1659956815031,1.3,3,9.200000000000001,,,,x,
1659956815034,,,,-0.05759586531581288,-0.048869219055841226,0.11868238913561441,x,
1659956815053,,,,-0.07155849933176751,0.07155849933176751,0.16929693744344998,x,
1659956815069,1.5,3.2,9.3,,,,x,
1659956815080,,,,0.0017453292519943296,0.03316125578789226,0.1710422666954443,x,
1659956815089,1.8,3.2,9.1,,,,x,
1659956815098,,,,0.06283185307179587,-0.04537856055185257,0.15707963267948966,x,
1659956815116,1.7000000000000002,3.2,8.700000000000001,,,,x,
1659956815117,,,,0.09599310885968813,-0.10122909661567112,0.10297442586766545,x,
1659956815133,,,,0.09773843811168245,-0.08377580409572782,0.048869219055841226,x,
1659956815149,1.7000000000000002,3.3000000000000003,8.8,,,,x,
1659956815153,,,,0.0645771823237902,-0.11519173063162576,0.029670597283903602,x,
1659956815229,1.6,3.2,8.9,,,,x,
1659956815241,,,,-0.059341194567807204,0.11693705988362008,0.06283185307179587,x,
1659956815250,1.5,3.2,8.8,-0.029670597283903602,0.12740903539558607,0.022689280275926284,x,
1659956815415,1.6,3.1,8.9,0.08726646259971647,-0.03665191429188092,0.07330382858376185,x,
1659956815434,,,,0.0017453292519943296,0.005235987755982989,0.08028514559173916,x,
1659956815449,1.7000000000000002,3.2,9,,,,x,
1659956815453,,,,-0.022689280275926284,0.04188790204786391,0.07155849933176751,x,
1659956815469,1.8,3.3000000000000003,9,,,,x,
1659956815476,,,,-0.031415926535897934,0.04363323129985824,0.048869219055841226,x,
1659956815489,1.8,3.3000000000000003,9.3,,,,x,
1659956815494,,,,0.005235987755982989,0.031415926535897934,0.015707963267948967,x,
1659956815509,1.6,3.3000000000000003,9,,,,x,
1659956815513,,,,0.0645771823237902,-0.022689280275926284,-0.010471975511965978,x,
1659956815529,1.5,3.1,8.9,,,,x,
1659956815533,,,,0.08028514559173916,-0.04537856055185257,-0.015707963267948967,x,
1659956815549,1.4000000000000001,3.2,8.6,,,,x,
1659956815553,,,,0.04537856055185257,-0.029670597283903602,0.003490658503988659,x,
1659956815569,1.6,3.2,8.8,,,,x,
1659956815577,,,,0.003490658503988659,-0.03490658503988659,0.003490658503988659,x,
1659956815589,1.5,3.2,8.8,,,,x,
1659956815594,,,,-0.026179938779914945,-0.027925268031909273,-0.003490658503988659,x,
1659956815610,1.6,3.1,9.5,,,,x,
1659956815613,,,,-0.019198621771937624,-0.03665191429188092,-0.013962634015954637,x,
1659956815629,1.4000000000000001,3,9,,,,x,
1659956815633,,,,0.015707963267948967,0.008726646259971648,-0.005235987755982989,x,
1659956815649,1.5,3.1,9.1,,,,x,
1659956815653,,,,0.026179938779914945,-0.010471975511965978,0.020943951023931956,x,
1659956815669,1.5,3,8.8,,,,x,
1659956815678,,,,0.026179938779914945,0.005235987755982989,0.027925268031909273,x,
1659956815689,1.6,3.2,9,,,,x,
1659956816019,1.5,3.2,9,0.005235987755982989,0.013962634015954637,0.020943951023931956,x,
1659956816033,1.5,3.2,8.9,0.03316125578789226,0,0.020943951023931956,x,
1659956816053,,,,0.026179938779914945,-0.015707963267948967,0.019198621771937624,x,
1659956816069,1.5,3.1,8.8,,,,x,
1659956816073,,,,0.010471975511965978,-0.024434609527920613,0.015707963267948967,x,
1659956816089,1.5,3.1,8.8,,,,x,
1659956816102,,,,-0.012217304763960306,-0.04188790204786391,0.026179938779914945,x,
1659956816120,1.6,3.1,9.200000000000001,-0.022689280275926284,-0.0645771823237902,0.027925268031909273,x,
1659956816137,1.7000000000000002,3.1,9.4,-0.012217304763960306,-0.026179938779914945,0.019198621771937624,x,
1659956816153,,,,0,-0.012217304763960306,0.020943951023931956,x,
1659956816169,1.6,3.1,9,,,,x,
1659956816174,,,,0.03839724354387525,-0.006981317007977318,0.019198621771937624,x,
1659956816189,1.6,3.2,8.9,,,,x,
1659956816205,,,,0.05759586531581288,-0.020943951023931956,0.015707963267948967,x,
1659956816217,1.5,3.1,8.9,0.04188790204786391,-0.022689280275926284,-0.003490658503988659,x,
1659956816233,1.5,3.1,9.1,0.0017453292519943296,0.013962634015954637,-0.013962634015954637,x,
1659956816253,1.6,3.1,9.1,,,,x,
1659956816254,,,,-0.026179938779914945,0.012217304763960306,-0.006981317007977318,x,
1659956816273,,,,-0.012217304763960306,0.003490658503988659,0.003490658503988659,x,
1659956816289,1.7000000000000002,3.2,9,,,,x,
1659956816302,,,,0.003490658503988659,-0.024434609527920613,0.010471975511965978,x,
1659956816309,1.7000000000000002,3.2,9.200000000000001,,,,x,
1659956816318,,,,0.03665191429188092,-0.019198621771937624,-0.006981317007977318,x,
1659956816336,1.5,3.1,8.9,,,,x,
1659956816349,1.5,3.1,8.9,,,,x,
1659956816532,1.6,3.1,9.1,,,,x,
1659956816533,,,,-0.013962634015954637,-0.029670597283903602,-0.008726646259971648,x,
1659956816553,,,,-0.024434609527920613,0.005235987755982989,-0.008726646259971648,x,
1659956816569,1.6,3.1,9.3,,,,x,
1659956816573,,,,-0.010471975511965978,0.017453292519943295,-0.006981317007977318,x,
1659956816749,1.6,3.2,8.8,-0.026179938779914945,0.03316125578789226,0.015707963267948967,x,
1659956816758,1.5,3.1,9,0.013962634015954637,-0.07330382858376185,0.005235987755982989,x,
1659956816774,,,,-0.029670597283903602,-0.010471975511965978,0.012217304763960306,x,
1659956816790,1.5,3,8.9,,,,x,
1659956816802,,,,-0.08203047484373349,0.0767944870877505,0.03665191429188092,x,
1659956816809,1.6,3.1,8.9,,,,x,
1659956816820,,,,-0.09773843811168245,0.0645771823237902,0.05061454830783556,x,
1659956816837,1.7000000000000002,3.1,9.200000000000001,,,,x,
1659956816838,,,,-0.05585053606381855,-0.010471975511965978,0.03665191429188092,x,
1659956817054,1.4000000000000001,3.1,9.1,,,,x,
1659956817055,,,,-0.003490658503988659,0.0017453292519943296,-0.04188790204786391,x,
1659956817073,,,,-0.024434609527920613,0.019198621771937624,-0.04363323129985824,x,
1659956817089,1.4000000000000001,3,9.1,,,,x,
1659956817093,,,,-0.017453292519943295,0.019198621771937624,-0.027925268031909273,x,
1659956817109,1.4000000000000001,3.1,9,,,,x,
1659956817122,,,,0.010471975511965978,0,-0.003490658503988659,x,
1659956817141,1.5,3,9,0.013962634015954637,-0.03490658503988659,0.012217304763960306,x,
1659956817152,1.5,2.9000000000000004,9,,,,x,
1659956817153,,,,0.020943951023931956,-0.027925268031909273,0.008726646259971648,x,
1659956817174,,,,0.003490658503988659,-0.010471975511965978,0.019198621771937624,x,
1659956817189,1.7000000000000002,3.1,9.1,,,,x,
1659956817193,,,,-0.010471975511965978,0.013962634015954637,0.0471238898038469,x,
1659956817209,1.8,3.1,9.1,,,,x,
1659956817220,,,,0.0017453292519943296,0.013962634015954637,0.031415926535897934,x,
1659956817235,1.8,3.2,9.200000000000001,,,,x,
1659956817236,,,,0.019198621771937624,0.005235987755982989,0.012217304763960306,x,
1659956817252,1.7000000000000002,3.2,9,,,,x,
1659956817253,,,,0.026179938779914945,0.031415926535897934,0,x,
1659956817273,,,,0.013962634015954637,0.054105206811824215,-0.012217304763960306,x,
1659956817289,1.7000000000000002,3.2,8.9,,,,x,
1659956817309,1.6,3.2,8.9,,,,x,
1659956817313,,,,0.013962634015954637,0.05759586531581288,-0.024434609527920613,x,
1659956817329,1.6,3.1,8.8,,,,x,
1659956817337,,,,-0.013962634015954637,0.027925268031909273,-0.04014257279586958,x,
1659956817351,1.5,3.1,9,,,,x,
1659956817592,1.5,3.1,9.1,0.006981317007977318,-0.04014257279586958,-0.020943951023931956,x,
1659956817606,1.5,3,9,0.003490658503988659,-0.006981317007977318,-0.024434609527920613,x,
1659956817626,,,,-0.0017453292519943296,0.03665191429188092,-0.015707963267948967,x,
1659956817642,1.5,3.1,8.9,0.005235987755982989,0.026179938779914945,0,x,
1659956817658,1.5,3.1,8.9,0.003490658503988659,0.003490658503988659,-0.0017453292519943296,x,
1659956817674,,,,-0.005235987755982989,-0.020943951023931956,0.005235987755982989,x,
1659956817690,1.5,3.1,9.1,,,,x,
1659956817693,,,,0.006981317007977318,-0.027925268031909273,0.012217304763960306,x,
1659956817709,1.5,3.1,9.1,,,,x,
1659956817721,,,,0.010471975511965978,-0.029670597283903602,0.019198621771937624,x,
1659956817739,1.6,3.1,9.1,,,,x,
1659956817740,,,,0.013962634015954637,-0.013962634015954637,0.013962634015954637,x,
1659956817754,1.6,3.1,9,,,,x,
1659956817755,,,,0.012217304763960306,0.0017453292519943296,0.013962634015954637,x,
1659956817773,,,,0.0017453292519943296,0.019198621771937624,0.015707963267948967,x,
1659956817808,1.6,3.1,8.9,,,,x,
1659956817809,,,,-0.015707963267948967,0.020943951023931956,0.010471975511965978,x,
1659956817826,,,,-0.010471975511965978,-0.006981317007977318,0.003490658503988659,x,
1659956817837,1.6,3.1,9,,,,x,
1659956817838,,,,-0.0017453292519943296,-0.04188790204786391,0.005235987755982989,x,
1659956818073,,,,-0.012217304763960306,0.006981317007977318,-0.003490658503988659,x,
1659956818089,1.6,3,8.9,,,,x,
1659956818093,,,,-0.020943951023931956,0.010471975511965978,-0.006981317007977318,x,
1659956818109,1.6,3.1,9,,,,x,
1659956818113,,,,-0.029670597283903602,-0.003490658503988659,-0.003490658503988659,x,
1659956818129,1.6,3.1,9.1,,,,x,
1659956818137,,,,-0.031415926535897934,0.005235987755982989,-0.005235987755982989,x,
1659956818154,1.6,3,9.1,,,,x,
1659956818155,,,,-0.022689280275926284,0.012217304763960306,-0.005235987755982989,x,
1659956818174,,,,0,0.026179938779914945,0.0017453292519943296,x,
1659956818189,1.6,3,9.1,,,,x,
1659956818209,1.6,3.1,8.9,,,,x,
1659956818214,,,,0.0017453292519943296,0.031415926535897934,0.003490658503988659,x,
1659956818229,1.6,3.1,8.9,,,,x,
1659956818237,,,,-0.008726646259971648,0.024434609527920613,-0.0017453292519943296,x,
1659956818252,1.6,3,9,,,,x,
1659956818269,1.6,3.1,9.1,,,,x,
1659956818273,,,,-0.013962634015954637,0.010471975511965978,0,x,
1659956818289,1.6,3,9.1,,,,x,
1659956818294,,,,-0.005235987755982989,0.013962634015954637,0,x,
1659956818593,,,,-0.026179938779914945,-0.022689280275926284,-0.019198621771937624,x,
1659956818609,1.6,3,9.1,,,,x,
1659956818623,,,,-0.04014257279586958,-0.0017453292519943296,-0.008726646259971648,x,
1659956818629,1.6,3,9.200000000000001,,,,x,
1659956818640,,,,-0.03490658503988659,0.017453292519943295,-0.0017453292519943296,x,
1659956818658,1.6,3,9.200000000000001,-0.019198621771937624,0.026179938779914945,-0.003490658503988659,x,
1659956818697,1.5,3,8.9,,,,x,
1659956818698,1.4000000000000001,3,9,0.013962634015954637,0.003490658503988659,-0.020943951023931956,x,
1659956818698,,,,0.006981317007977318,0.006981317007977318,-0.013962634015954637,x,
1659956818713,,,,-0.006981317007977318,0.010471975511965978,-0.013962634015954637,x,
1659956818729,1.4000000000000001,2.9000000000000004,9,,,,x,
1659956818740,,,,-0.024434609527920613,0.024434609527920613,0,x,
1659956818757,1.6,3.1,9.200000000000001,-0.03316125578789226,0.027925268031909273,0.015707963267948967,x,
1659956818777,1.6,3,9,0.003490658503988659,-0.0017453292519943296,0.019198621771937624,x,
1659956818794,,,,0.04363323129985824,-0.04014257279586958,0.008726646259971648,x,
1659956818809,1.6,3,8.9,,,,x,
1659956818813,,,,0.027925268031909273,-0.03665191429188092,0.0017453292519943296,x,
1659956818829,1.6,3,9.1,,,,x,
1659956818841,,,,-0.005235987755982989,-0.006981317007977318,0.003490658503988659,x,
1659956818857,1.6,3.1,9.1,,,,x,
1659956818858,,,,-0.020943951023931956,0.029670597283903602,0.003490658503988659,x,
1659956818873,1.6,3,9,-0.027925268031909273,0.03839724354387525,0,x,
1659956818894,,,,-0.003490658503988659,0.008726646259971648,-0.012217304763960306,x,
1659956818909,1.5,3,8.9,,,,x,
1659956818913,,,,0.013962634015954637,-0.029670597283903602,-0.015707963267948967,x,
1659956818929,1.5,3,9.1,,,,x,
1659956819109,1.6,3,9,,,,x,
1659956819114,,,,0.012217304763960306,-0.020943951023931956,0.020943951023931956,x,
1659956819130,1.5,2.9000000000000004,9.1,,,,x,
1659956819134,,,,-0.05235987755982989,0.0767944870877505,0.015707963267948967,x,
1659956819150,1.4000000000000001,2.9000000000000004,9.4,,,,x,
1659956819406,1.4000000000000001,3.1,8.8,0.03490658503988659,0.005235987755982989,-0.14486232791552936,x,
1659956819413,,,,0.06283185307179587,-0.020943951023931956,-0.06632251157578452,x,
1659956819429,1.3,3,9,,,,x,
1659956819598,1.7000000000000002,3.3000000000000003,9,0.027925268031909273,-0.048869219055841226,0.03316125578789226,x,
1659956819613,1.5,3.2,9.1,0.008726646259971648,-0.04363323129985824,0.026179938779914945,x,
1659956819633,,,,-0.013962634015954637,-0.010471975511965978,0.013962634015954637,x,
1659956819651,1.5,3.2,8.700000000000001,,,,x,
1659956819653,,,,-0.026179938779914945,0.029670597283903602,0.03316125578789226,x,
1659956819677,1.6,3.2,8.9,-0.061086523819801536,0.022689280275926284,0.0645771823237902,x,
1659956819693,,,,-0.0890117918517108,-0.012217304763960306,0.06806784082777885,x,
1659956819710,1.6,3.2,9.1,,,,x,
1659956819713,,,,-0.06806784082777885,-0.04363323129985824,0.048869219055841226,x,
1659956819730,1.6,3.3000000000000003,9.200000000000001,,,,x,
1659956819734,,,,-0.03665191429188092,-0.05235987755982989,0.029670597283903602,x,
1659956819749,1.6,3.2,9.200000000000001,,,,x,
1659956819753,,,,-0.017453292519943295,-0.048869219055841226,0.010471975511965978,x,
1659956819769,1.5,3.2,8.9,,,,x,
1659956819773,,,,-0.0017453292519943296,-0.020943951023931956,-0.003490658503988659,x,
1659956819792,1.6,3.2,8.9,,,,,
1659956819793,,,,-0.013962634015954637,-0.008726646259971648,-0.006981317007977318,,
1659956819820,,,,-0.013962634015954637,-0.008726646259971648,-0.006981317007977318,,
1659956819837,1.8,3.3000000000000003,9.200000000000001,,,,,
1659956819838,,,,-0.003490658503988659,-0.022689280275926284,-0.017453292519943295,,
1659956819853,1.5,3.2,8.8,0.09250245035569947,-0.0890117918517108,-0.06632251157578452,,
1659956819873,,,,0.1361356816555577,-0.17627825445142728,-0.0767944870877505,,
1659956819889,1.9000000000000001,3.5,8.3,,,,,
1659956819893,,,,0.13962634015954636,-0.3193952531149623,-0.10122909661567112,,
1659956819909,2,3.3000000000000003,8.4,,,,,x
1659956819913,,,,0.11519173063162576,-0.41538836197465046,-0.1466076571675237,,x
1659956819929,2.1,3.4000000000000004,8.1,,,,,x
1659956820113,,,,-0.42586033748661645,0.8185594191853406,-0.7871434926494426,,x
1659956820129,4.5,2.5,7.2,,,,,x
1659956820299,8.700000000000001,6.2,7.1000000000000005,1.5358897417550101,-1.8186330805780915,-0.8133234314293576,,x
1659956820309,15.600000000000001,10.4,10.3,6.400122367063207,-9.201375816514105,-1.530653753999027,,x
1659956820313,,,,10.068804454755288,-16.58411855245012,-3.553490357060455,,x
1659956820329,15.3,9.3,11.8,,,,,x
1659956820333,,,,11.849040291789503,-19.818213656395613,-6.014404602372459,,x
1659956820349,5.800000000000001,2.2,7.1000000000000005,,,,,x
1659956820380,-15.8,-2.7,-5.4,8.491026810952414,-15.292574905974316,-6.445500927615059,,x
1659956820397,-29.900000000000002,-6.300000000000001,-8.6,4.392993727269728,-8.51371609122834,-4.199262180298357,,x
1659956820413,-23,-6.800000000000001,-9.200000000000001,-1.2147491593880535,1.3439035240356338,-0.13439035240356337,,x
1659956820631,-55.300000000000004,-14.9,-13.600000000000001,,,,,x
1659956820633,,,,7.19948316447661,-10.171778880622952,-12.020082558484948,,x
1659956820662,,,,4.328416544945937,-2.2671826983406342,-7.871434926494427,,x
1659956820679,-5.9,-21.400000000000002,7,-3.5081117965086026,10.192722831646885,1.1676252695842064,,x
1659956820713,5,-16.7,34.9,-12.29060859254407,17.683675981206548,9.391616704981487,,x
1659956820714,6.800000000000001,-10.700000000000001,38,-18.53888731468377,19.867082875451455,11.913617474113293,,x
1659956820731,27.3,9.3,52.800000000000004,,,,,x
1659956820734,,,,-14.268066635053644,13.857914260834978,6.257005368399671,,x
1659956820759,,,,-0.8831366015091308,-1.4573499254152653,0.8639379797371931,,x
1659956820769,35.9,11,39.7,,,,,x
1659956820775,,,,10.362019769090335,-12.479104151759456,-6.3285638677314395,,x
1659956820789,26.900000000000002,-9.1,29.700000000000003,,,,,x
1659956820794,,,,14.1895268187139,-18.730873532403145,-12.592550553139088,,x
1659956820809,17.3,-17.8,34,,,,,x
1659956820814,,,,13.325588838976707,-18.727382873899156,-15.489797111449676,,x
1659956820829,9.8,-23,28.700000000000003,,,,,x
1659956820849,-5,-28.1,25.700000000000003,,,,,x
1659956820853,,,,9.976302004399589,-12.466886846995497,-15.865042900628456,,x
1659956820869,-23.700000000000003,-28.6,21.400000000000002,,,,,x
1659956820880,,,,8.218755447641298,-8.710938296703699,-13.400637996812463,,x
1659956820896,-55.400000000000006,-16.2,-20.400000000000002,5.510004448546098,-2.321287905152458,-7.838273670706534,,x
1659956820914,,,,1.960004749989632,3.0909781052819576,0.49218284906240095,,x
1659956820929,-27.700000000000003,-13.600000000000001,-26.200000000000003,,,,,x
1659956821161,-75.60000000000001,-38.2,2.8000000000000003,13.119639987241376,-12.908455147750061,-19.25272697874945,,x
1659956821174,-67.7,-24,-38.5,,,,,x
1659956821175,-17.1,-15.700000000000001,-37.7,7.293730944084303,0.11344640137963143,-5.797983775125163,,x
1659956821194,-10.5,-24,-17.900000000000002,-8.498008127960391,7.1785392134526775,10.451031560942045,,x
1659956821214,-12.600000000000001,-43.800000000000004,6.2,,,,,x
1659956821215,,,,-16.170475519727464,9.700539982584484,11.957250705413152,,x
1659956821234,,,,-19.753636474071822,9.335766168917669,13.583897568271867,,x
1659956821249,-11.200000000000001,-58.1,43.300000000000004,,,,,x
1659956821281,4.4,-45.800000000000004,63.300000000000004,-16.175711507483445,7.494443808063651,15.33097214951819,,x
1659956821308,63.1,18.3,45.800000000000004,-7.714355293814937,4.763003528692526,12.072442436044778,,x
1659956821315,,,,2.78554548618295,1.3508848410436112,3.2480577379614473,,x
1659956821331,43.900000000000006,1.1,20.200000000000003,,,,,x
1659956821333,,,,10.917034471224532,-7.002260959001251,-7.185520530460655,,x
1659956821350,22.900000000000002,-13.700000000000001,34,,,,,x
1659956821353,,,,13.86315024859096,-11.82809634076557,-13.714797262171443,,x
1659956821369,13.600000000000001,-28.200000000000003,26.900000000000002,,,,,x
1659956821410,,,,15.666075365901103,-11.932816095885231,-18.469074144603997,,x
1659956821424,-24.8,-54.2,30.700000000000003,,,,,x
1659956821444,,,,14.725342899076159,-12.192870154432386,-18.327702475192456,,x
1659956821649,21.900000000000002,-17.7,31.5,,,,,x
1659956821653,,,,14.550809973876726,-11.925834778877254,-15.317009515502237,,x
1659956821669,14.3,-33.4,31.8,,,,,x
1659956821676,,,,15.29432023522631,-11.079350091660004,-17.9140594424698,,x
1659956821692,-30.700000000000003,-57.7,26.5,,,,,x
1659956821693,,,,16.043066484331877,-12.683307674242792,-19.130553931109848,,x
1659956821714,,,,13.503612422680128,-8.815658051823359,-16.87733386678517,,x
1659956821729,-77.80000000000001,-43.800000000000004,-12.5,,,,,x
1659956821733,,,,8.066911802717792,0.11344640137963143,-8.169886228585456,,x
1659956821749,-57.1,-24.6,-42.7,,,,,x
1659956821753,,,,0.8796459430051421,4.3406338497098975,3.569198320328404,,x
1659956821769,-12.4,-18.900000000000002,-26.1,,,,,x
1659956821775,,,,-6.375687757535286,5.408775351930427,10.063568466999305,,x
1659956821792,-7.9,-17.1,-8.6,,,,,x
1659956821813,-0.4,-43,21.8,-14.81435469092787,7.988371986378047,12.91543646475804,,x
1659956821834,,,,-17.51961503151908,8.55385866402421,14.542083327616755,,x
1659956821849,6,-41.1,48.5,,,,,x
1659956821853,,,,-18.13222559896909,8.632398480363953,14.702653618800232,,x
1659956821869,40,-7.5,75.7,,,,,x
1659956822170,70.9,18.5,37.2,,,,,x
1659956822173,,,,7.4647732107797475,-2.3684117949563053,-3.331833542057175,,x
1659956822189,44.900000000000006,-10.8,17.900000000000002,,,,,x
1659956822198,,,,12.44419756671957,-6.813765399785863,-12.788027429362453,,x
1659956822215,-2.1,-42.400000000000006,27.400000000000002,,,,,x
1659956822216,,,,13.123130645745364,-9.313076888641742,-17.23338103419201,,x
1659956822232,-31.1,-48.800000000000004,24.200000000000003,,,,,x
1659956822233,,,,12.878784550466158,-9.615018849236762,-18.266615951372653,,x
1659956822253,-72.10000000000001,-39.5,-5,12.32726050683595,-8.077383778229757,-16.54397597965425,,x
1659956822274,,,,9.532988374393028,-2.611012560983517,-10.026916552707423,,x
1659956822303,-16.6,-17.6,-34.9,3.4714598822167217,3.1799898971336686,0.31590459461097364,,x
1659956822314,-14.200000000000001,-19.1,-10.4,,,,,x
1659956822315,,,,-4.389503068765739,4.925319149127998,7.721336610822914,,x
1659956822350,-12.100000000000001,-30.900000000000002,6.300000000000001,,,,,x
1659956822353,,,,-14.498450096316896,7.576474282907385,11.740829878165854,,x
1659956822369,-0.6000000000000001,-41.1,23.200000000000003,,,,,x
1659956822383,,,,-16.39038700547875,7.553785002631458,13.959143357450648,,x
1659956822389,8.700000000000001,-37.4,43.5,,,,,x
1659956822399,,,,-17.20196510765611,8.297295263981043,14.597933863680574,,x
1659956822417,65.4,20.700000000000003,58.1,-13.412855301576423,5.930628798276732,12.973032330073853,,x
1659956822432,49.2,0.1,22.700000000000003,,,,,x
1659956822433,,,,-3.3580134808370903,1.223475805648025,7.435102613495844,,x
1659956822453,,,,7.246607054280457,-2.5656340004316647,-2.241002759560719,,x
1659956822469,17.6,-22.700000000000003,20,,,,,x
1659956822481,,,,12.719959588534675,-7.463027881527753,-10.92401578823251,,x
1659956822489,-9,-30.200000000000003,18.1,,,,,x
1659956822495,,,,13.336060814488672,-9.321803534901715,-14.781193435139977,,x
1659956822689,6.4,5.2,1.2000000000000002,,,,,x
1659956822696,,,,-0.9145525280450287,3.387684078120994,1.8709929581379212,,x
1659956822715,4,4.3,3.1,-1.9373154697137058,4.323180557189954,1.5271630954950384,,x
1659956822734,,,,-3.2183871406775437,4.317944569433972,1.122246709032354,,x
1659956822892,1.1,0.7000000000000001,21.1,-3.2951816277652943,-0.6667157742618339,0.21991148575128552,,x
1659956822893,-2.3000000000000003,0,12.200000000000001,,,,,x
1659956822902,,,,-2.5359634031477607,-0.7103490055616921,-0.4904375198104066,,
1659956822914,-1.6,1.1,8.8,0.2827433388230814,-0.5742133239061344,-0.7679448708775051,,
1659956822953,-0.5,2.4000000000000004,8.700000000000001,1.0349802464326374,-0.7557275661135447,-0.25481807079117214,,
1659956822954,-0.4,2,6.5,0.3420845333908886,-0.23212879051524585,0.3141592653589793,,
1659956822974,0.6000000000000001,2,9,-0.20420352248333656,0.16929693744344998,0.3036872898470134,,
1659956823189,1.4000000000000001,2.5,9.3,,,,x,
1659956823204,,,,0.020943951023931956,-0.24434609527920614,0.14486232791552936,x,
1659956823225,1.6,2.5,9.600000000000001,0.031415926535897934,-0.25132741228718347,0.09948376736367678,x,
1659956823235,1.4000000000000001,2.4000000000000004,9.3,0.07155849933176751,-0.22514747350726852,0.05235987755982989,x,
1659956823251,1.2000000000000002,2.3000000000000003,8.9,,,,x,
1659956823253,,,,0.07853981633974483,-0.10646508437165411,0.031415926535897934,x,
1659956823273,,,,0.04537856055185257,-0.026179938779914945,0.04014257279586958,x,
1659956823289,1.2000000000000002,2.4000000000000004,9,,,,x,
1659956823301,,,,0.003490658503988659,-0.003490658503988659,0.04537856055185257,x,
1659956823316,1.2000000000000002,2.3000000000000003,9.200000000000001,,,,x,
1659956823317,,,,-0.03490658503988659,0.0017453292519943296,0.04363323129985824,x,
1659956823334,1.3,2.4000000000000004,9.3,-0.07504915783575618,0.008726646259971648,0.03316125578789226,x,
1659956823353,,,,-0.10995574287564276,0.006981317007977318,0.031415926535897934,x,
1659956823369,1.2000000000000002,2.2,9.600000000000001,,,,x,
1659956823373,,,,-0.10471975511965978,0.003490658503988659,0.010471975511965978,x,
1659956823389,1.3,2.2,9.5,,,,x,
1659956823393,,,,-0.06981317007977318,0.03839724354387525,0.019198621771937624,x,
1659956823409,1.3,2.2,9.600000000000001,,,,x,
1659956823415,,,,-0.04188790204786391,0.017453292519943295,0.013962634015954637,x,
1659956823431,1.2000000000000002,2.2,9.200000000000001,,,,x,
1659956823433,,,,-0.006981317007977318,0.04363323129985824,0.012217304763960306,x,
1659956823454,,,,-0.008726646259971648,0.027925268031909273,0.008726646259971648,x,
1659956823469,1.1,2.3000000000000003,9,,,,x,
1659956823473,,,,-0.024434609527920613,0.022689280275926284,0.012217304763960306,x,
1659956823489,1,2.2,9.200000000000001,,,,x,
1659956823493,,,,-0.06283185307179587,0.003490658503988659,0.019198621771937624,x,
1659956823779,1.3,2.2,9.4,0.026179938779914945,-0.026179938779914945,0.008726646259971648,x,
1659956823788,1.3,2.1,9.4,0.008726646259971648,-0.026179938779914945,-0.0017453292519943296,x,
1659956823793,,,,0.006981317007977318,-0.029670597283903602,-0.008726646259971648,x,
1659956823809,1.2000000000000002,2.1,9.4,,,,x,
1659956823820,,,,0.03316125578789226,-0.008726646259971648,-0.012217304763960306,x,
1659956823836,1.1,2.1,9.1,,,,x,
1659956823837,,,,0.031415926535897934,0.017453292519943295,-0.005235987755982989,x,
1659956823855,1.2000000000000002,2.2,9.200000000000001,-0.005235987755982989,0.019198621771937624,0,x,
1659956823873,,,,-0.03316125578789226,0.010471975511965978,-0.008726646259971648,x,
1659956823889,1.1,2.1,9.4,,,,x,
1659956823910,1.1,2.2,9.600000000000001,,,,x,
1659956823922,,,,-0.005235987755982989,0.003490658503988659,-0.003490658503988659,x,
1659956823929,1.1,2.2,9.3,,,,x,
1659956823966,,,,0.026179938779914945,-0.020943951023931956,0.005235987755982989,x,
1659956823976,1.2000000000000002,2.2,9.4,0.03665191429188092,-0.026179938779914945,-0.003490658503988659,x,
1659956823976,1.1,2.1,9.200000000000001,,,,x,
1659956824002,,,,0.03665191429188092,-0.026179938779914945,-0.003490658503988659,x,
1659956824159,1,2.1,9.4,-0.010471975511965978,0.020943951023931956,-0.03316125578789226,x,
1659956824173,,,,-0.012217304763960306,0.019198621771937624,-0.017453292519943295,x,
1659956824189,1,2.1,9.3,,,,x,
1659956824199,,,,-0.005235987755982989,0.026179938779914945,0.003490658503988659,x,
1659956824209,1.1,2.2,9.4,,,,x,
1659956824220,,,,-0.006981317007977318,0.010471975511965978,0.013962634015954637,x,
1659956824235,1.2000000000000002,2.2,9.4,0.003490658503988659,0.0017453292519943296,0.012217304763960306,x,
1659956824269,1.2000000000000002,2.2,9.3,,,,x,
1659956824273,,,,0.019198621771937624,-0.008726646259971648,0.0017453292519943296,x,
1659956824289,1.2000000000000002,2.2,9.3,,,,x,
1659956824294,,,,0.010471975511965978,-0.006981317007977318,0.005235987755982989,x,
1659956824309,1.2000000000000002,2.1,9.200000000000001,,,,x,
1659956824320,,,,-0.010471975511965978,0.008726646259971648,0.010471975511965978,x,
1659956824329,1.1,2.2,9.200000000000001,,,,x,
1659956824338,,,,-0.03490658503988659,0.026179938779914945,0.024434609527920613,x,
1659956824352,1.2000000000000002,2.2,9.3,,,,x,
1659956824354,,,,-0.03839724354387525,0.015707963267948967,0.017453292519943295,x,
1659956824374,,,,-0.04537856055185257,0.012217304763960306,0.012217304763960306,x,
1659956824389,1.3,2.2,9.5,,,,x,
1659956824394,,,,-0.029670597283903602,0.006981317007977318,-0.005235987755982989,x,
1659956824411,1.1,2.1,9.3,,,,x,
1659956824416,,,,-0.008726646259971648,-0.008726646259971648,-0.012217304763960306,x,
1659956824434,1.1,2.1,9.3,,,,x,
1659956824435,,,,0.0017453292519943296,-0.022689280275926284,-0.010471975511965978,x,
1659956824454,,,,0.012217304763960306,-0.005235987755982989,0.0017453292519943296,x,
1659956824469,1.1,2.1,9.4,,,,x,
1659956824474,,,,0.010471975511965978,-0.012217304763960306,0.013962634015954637,x,
1659956824489,1.1,2.1,9.3,,,,x,
1659956824494,,,,0.024434609527920613,-0.013962634015954637,0.017453292519943295,x,
1659956824824,,,,-0.026179938779914945,0.0017453292519943296,0.005235987755982989,x,
1659956824829,1.2000000000000002,2.1,9.4,,,,x,
1659956824844,,,,-0.017453292519943295,0.017453292519943295,0.005235987755982989,x,
1659956824855,1.1,2.1,9.200000000000001,-0.015707963267948967,0.015707963267948967,0.003490658503988659,x,
1659956824873,,,,-0.03316125578789226,0.017453292519943295,0.006981317007977318,x,
1659956824889,1.2000000000000002,2.1,9.4,,,,x,
1659956824893,,,,-0.0471238898038469,0.010471975511965978,0.006981317007977318,x,
1659956824909,1.2000000000000002,2,9.3,,,,x,
1659956824924,,,,-0.04188790204786391,0.015707963267948967,0,x,
1659956824929,1.2000000000000002,2.1,9.4,,,,x,
1659956824940,,,,-0.03490658503988659,0.013962634015954637,-0.006981317007977318,x,
1659956824957,1.2000000000000002,2,9.5,-0.029670597283903602,0.003490658503988659,-0.010471975511965978,x,
1659956824974,1.2000000000000002,2,9.4,,,,x,
1659956824975,,,,-0.04363323129985824,0.003490658503988659,0,x,
1659956824993,,,,-0.026179938779914945,0.006981317007977318,-0.003490658503988659,x,
1659956825009,1.2000000000000002,2,9.5,,,,x,
1659956825023,,,,-0.006981317007977318,-0.006981317007977318,-0.003490658503988659,x,
1659956825029,1.1,2,9.4,,,,x,
1659956825040,,,,0.013962634015954637,-0.005235987755982989,-0.0017453292519943296,x,
1659956825060,1.1,2,9.3,0.010471975511965978,0.0017453292519943296,0.006981317007977318,x,
1659956825087,1.1,2,9.200000000000001,-0.005235987755982989,0.0017453292519943296,0.015707963267948967,x,
1659956825093,,,,-0.022689280275926284,0.005235987755982989,0.022689280275926284,x,
1659956825109,1.1,2,9.200000000000001,,,,x,
1659956825122,,,,-0.05235987755982989,0.017453292519943295,0.031415926535897934,x,
1659956825349,0.9,1.6,9.4,,,,x,
1659956825356,,,,-0.23212879051524585,0.1884955592153876,0.16057029118347832,x,
1659956825511,2,1.9000000000000001,9.700000000000001,,,,,x
1659956825512,,,,-0.13788101090755203,0.158824961931484,0.47472955654245763,,x
1659956825534,,,,-0.15533430342749532,0.09773843811168245,0.47647488579445196,,x
1659956825536,5.9,2.8000000000000003,10.3,-0.13439035240356337,0.20245819323134223,0.34732052114687156,,x
1659956825554,5.9,2.3000000000000003,8.200000000000001,-0.13089969389957473,0.5235987755982989,0,,x
1659956825574,2.7,-0.2,7.300000000000001,-0.09075712110370514,0.7452555906015788,-0.7225663103256524,,x
1659956825592,-4,-5,7.300000000000001,,,,,x
1659956825593,,,,-0.14311699866353503,0.45727626402251437,-1.6301375213627038,,x
1659956825614,,,,0.24085543677521748,-2.3928464044842257,-1.488765851951163,,x
1659956825857,-26.900000000000002,-19.1,16.6,-0.32288591161895097,-1.7505652397503126,-3.1154127148098785,,x
1659956825873,-11,-20.400000000000002,20.3,,,,,x
1659956825874,,,,0.022689280275926284,-0.6003932626860494,1.8570303241219668,,x
1659956825893,11,-14.9,25.200000000000003,,,,,x
1659956825894,,,,-0.5044001538263613,1.9739673840055867,6.544984694978736,,x
1659956825913,,,,-0.5218534463463046,3.998549316319009,9.180431865490174,,x
1659956825929,46.2,17.400000000000002,16.1,,,,,x
1659956825943,,,,0.8011061266653973,4.696681017116741,7.632324818971203,,x
1659956825954,18.3,-4.3,0.5,,,,,x
1659956825955,,,,1.1309733552923256,4.876449930072157,0.4241150082346221,,x
1659956825972,-0.8,-10.9,14.9,,,,,x
1659956825973,,,,0.2949606435870417,0.5445427266222308,-6.813765399785863,,x
1659956825993,,,,-0.4171336912266448,-3.3161255787892263,-9.293878266869806,,x
1659956826009,-19.700000000000003,-10.5,20.3,,,,,x
1659956826013,,,,-0.2530727415391778,-3.366740127097062,-7.517133088339578,,x
1659956826029,-24.400000000000002,-9.9,11.700000000000001,,,,,x
1659956826033,,,,0.5934119456780721,-1.3753194505715318,-3.658210112180115,,x
1659956826054,-16.6,-21.200000000000003,5.300000000000001,-0.1884955592153876,1.942551457469689,4.656538444320871,,x
1659956826074,,,,-1.4940018397071462,1.879719604397893,7.963937376850126,,x
1659956826089,-6.300000000000001,-19.900000000000002,21.6,,,,,x
1659956826093,,,,-0.4118977034706618,0.9651670763528643,9.90474350506782,,x
1659956826109,26.700000000000003,-1.9000000000000001,21.200000000000003,,,,,x
1659956826113,,,,2.3527038316883564,1.0629055144645467,8.230972752405258,,x
1659956826382,0.30000000000000004,-8.6,23.5,3.2131511529215606,-4.443608275577563,-7.525859734599549,,x
1659956826383,-19.1,-12.100000000000001,19.8,0.6911503837897545,-6.13134166225608,-9.77907979892423,,x
1659956826393,-25.6,-12.200000000000001,6.2,0.2426007660272118,-2.7401669256310974,-7.995353303386024,,x
1659956826418,,,,0.6614797865058509,0.44505895925855404,-3.775147172063735,,x
1659956826434,-11.600000000000001,-20.200000000000003,12.700000000000001,,,,,x
1659956826435,,,,0.015707963267948967,1.7488199104983182,1.2514010736799344,,x
1659956826459,,,,-1.7383479349863522,2.202605516016844,6.0336032241443975,,x
1659956826500,52.6,22.900000000000002,16.5,1.9076448724298023,3.108431397801901,1.4206980111233842,,x
1659956826500,,,,-2.5586526834236873,2.5743606466916362,8.925613794699002,,x
1659956826510,51.2,18.900000000000002,-12.200000000000001,,,,,x
1659956826513,,,,1.8954275676658419,-1.1414453308042916,-7.592182246175334,,x
1659956826529,25,-9.1,6.1000000000000005,,,,,x
1659956826533,,,,0.5742133239061344,-5.288347633542819,-12.056734472776828,,x
1659956826549,-7.5,-19.900000000000002,22,,,,,x
1659956826562,,,,0.42935099599060506,-4.365068459237818,-10.672688375945325,,x
1659956826576,-37.9,-17.2,7.4,0.7365289443416071,-0.9215338450530061,-5.164429256651221,,x
1659956826595,-21.6,-23,0.6000000000000001,0.5934119456780721,1.3945180723434694,1.2845623294678266,,x
1659956826612,-7.6000000000000005,-25.400000000000002,11.5,,,,,x
1659956826613,,,,-1.2269664641520137,2.4347343065320897,6.9254664719134995,,x
1659956826909,-38.2,-15.700000000000001,16.400000000000002,,,,,x
1659956826913,,,,1.4119713648634127,-4.406956361285682,-6.2098814785958245,,x
1659956826929,-32.300000000000004,-20.3,7.5,,,,,x
1659956826933,,,,0.08377580409572782,1.1972958668681102,0.5480333851262195,,x
1659956826949,-5.1000000000000005,-26.400000000000002,11.3,,,,,x
1659956826954,,,,-2.21307749152881,3.733259270015871,11.189305834535647,,x
1659956826971,43.1,-1.3,22.700000000000003,,,,,x
1659956826974,,,,-3.108431397801901,6.485643500410929,8.728391589223643,,x
1659956826989,63,29.700000000000003,19.200000000000003,,,,,x
1659956826994,,,,-0.8970992355250854,5.326744877086694,-1.24965574442794,,x
1659956827009,27.6,0.2,-0.5,,,,,x
1659956827014,,,,3.2393310917014757,-4.984660343695805,-9.13854396344231,,x
1659956827029,-0.6000000000000001,-13.600000000000001,18.6,,,,,x
1659956827034,,,,3.286454981505323,-9.889035541799872,-9.695303994828501,,x
1659956827049,-26.6,-16.8,27.1,,,,,x
1659956827058,,,,1.5917402778188285,-4.494222823885399,-5.551892350593962,,x
1659956827072,-35.300000000000004,-14.600000000000001,16,,,,,x
1659956827074,,,,0.2635447170511438,2.6232298657474775,1.1484266478122689,,x
1659956827089,-15.200000000000001,-20.6,4.800000000000001,,,,,x
1659956827094,,,,-0.5044001538263613,3.949680097263168,7.222172444752536,,x
1659956827497,-24.1,-17.2,27.900000000000002,2.8902652413026098,-8.845328649107262,-10.175269539126942,,x
1659956827512,-34.1,-14.3,16.2,,,,,x
1659956827513,,,,1.6755160819145565,-5.2080624879510795,-6.965609044709369,,x
1659956827534,,,,0.7155849933176751,1.3386675362796507,-0.7330382858376184,,x
1659956827549,-22.8,-18.6,5.5,,,,,x
1659956827564,,,,0.11519173063162576,3.2393310917014757,5.499532473034132,,x
1659956827577,37.7,-0.8,14,-0.8918632477691024,3.1695179216217024,9.426523290021374,,x
1659956827593,53,26.400000000000002,9.600000000000001,-1.848303677861995,4.118977034706618,9.094910732142452,,x
1659956827614,,,,-1.8517943363659837,4.935791124639964,1.911135530933791,,x
1659956827629,21,-3.6,2.6,,,,,x
1659956827633,,,,0.9285151620609834,-1.7749998492782333,-6.785840131753954,,x
1659956827649,2.9000000000000004,-11.200000000000001,19.900000000000002,,,,,x
1659956827661,,,,2.530727415391778,-9.250245035569947,-9.569640288684909,,x
1659956827677,-23.1,-17.7,29.5,,,,,x
1659956827678,,,,1.9582594207376378,-7.269296334556382,-7.450810576763793,,x
1659956827697,-23.200000000000003,-22.8,4.7,0.9232791743050004,0.5532693728822025,-1.8186330805780915,,x
1659956827713,10.200000000000001,-21.3,12.5,0.0767944870877505,4.42615498305762,5.028293574995663,,x
1659956827913,,,,-0.7470009198535731,3.569198320328404,1.4538592669112766,,x
1659956827929,13.3,2.4000000000000004,2.6,,,,,x
1659956827933,,,,2.8047441079548876,-4.057890510886816,-4.9218284906240095,,x
1659956827949,-4,-8.6,11.4,,,,,x
1659956827954,,,,2.949606435870417,-7.368780101920059,-5.672320068981572,,x
1659956828119,-0.8,-1.9000000000000001,12.100000000000001,1.2322024519079966,-2.2078415037728267,-2.071705822117269,,x
1659956828129,0.4,-1.2000000000000002,10.100000000000001,1.439896632895322,-1.858775653373961,-1.5446163880149817,,x
1659956828134,,,,1.6161748873467492,-0.7522369076095561,-0.7260569688296411,,x
1659956828166,4.7,3.1,6.300000000000001,1.5062191444711064,0.40317105721069013,-0.012217304763960306,,x
1659956828185,,,,0.7330382858376184,1.4451326206513049,0.45727626402251437,,x
1659956828197,3.9000000000000004,2.5,10.5,-0.027925268031909273,1.9041542139258136,0.36302848441482055,,
1659956828214,4.5,1.2000000000000002,10.600000000000001,0.31066860685499065,1.6074482410867776,-0.3246312408709453,,
1659956828518,,,,0.5270894341022876,-0.5166174585903216,-0.07155849933176751,x,
1659956828533,0.2,1.8,8.6,0.5969026041820608,-0.5253441048502933,0.08726646259971647,x,
1659956828553,,,,0.4380776422505767,-0.4276056667386107,0.26878070480712674,x,
1659956828569,0.5,1.8,9.1,,,,x,
1659956828578,,,,0.2792526803190927,-0.2879793265790644,0.42935099599060506,x,
1659956828591,2.3000000000000003,2.7,9.600000000000001,,,,x,
1659956828593,,,,0.19198621771937627,-0.17278759594743862,0.5724679946541401,x,
1659956828615,2.5,2.9000000000000004,9.1,,,,x,
1659956828616,,,,0.1413716694115407,-0.03316125578789226,0.6003932626860494,x,
1659956828649,2.6,3,9.200000000000001,,,,x,
1659956828653,,,,0.21991148575128552,-0.0942477796076938,0.2879793265790644,x,
1659956828669,2.2,2.7,8.700000000000001,,,,x,
1659956828676,,,,0.2792526803190927,-0.19722220547535924,0.10821041362364843,x,
1659956828689,1.6,2.5,8.5,,,,x,
1659956828697,,,,0.23212879051524585,-0.2530727415391778,-0.015707963267948967,x,
1659956828711,1.3,2.5,9.3,,,,x,
1659956828713,,,,0.015707963267948967,-0.1518436449235067,-0.008726646259971648,x,
1659956829012,1.7000000000000002,2.6,9.9,-0.18675022996339327,0.04363323129985824,0.07853981633974483,x,
1659956829030,1.5,2.3000000000000003,9.4,0.0471238898038469,0,-0.05235987755982989,x,
1659956829031,1.5,2.5,9.3,,,,x,
1659956829054,,,,0.06806784082777885,0.015707963267948967,-0.024434609527920613,x,
1659956829079,1.1,2.3000000000000003,9,0.06283185307179587,0.061086523819801536,-0.024434609527920613,x,
1659956829097,1.1,2.5,9.200000000000001,0.03316125578789226,0.09250245035569947,0,x,
1659956829115,1.3,2.6,9.4,-0.020943951023931956,0.1361356816555577,0.048869219055841226,x,
1659956829132,1.4000000000000001,2.8000000000000003,9.5,,,,x,
1659956829133,,,,-0.05585053606381855,0.1710422666954443,0.05759586531581288,x,
1659956829153,1.4000000000000001,2.5,9.8,0.10297442586766545,-0.0017453292519943296,-0.019198621771937624,x,
1659956829182,,,,0.2111848394913139,-0.08028514559173916,-0.024434609527920613,x,
1659956829203,1.4000000000000001,2.5,8.9,0.23387411976724015,-0.010471975511965978,0.010471975511965978,x,
1659956829214,1.3,2.4000000000000004,8.5,0.18675022996339327,0.07155849933176751,0.05585053606381855,x,
1659956829433,0.30000000000000004,2.1,8.9,-0.11344640137963143,0.010471975511965978,-0.2059488517353309,x,
1659956829453,,,,0.11693705988362008,-0.09773843811168245,-0.2111848394913139,x,
1659956829469,0.1,2,8.700000000000001,,,,x,
1659956829473,,,,0.14835298641951802,-0.20420352248333656,-0.0767944870877505,x,
1659956829489,0.6000000000000001,2.3000000000000003,8.700000000000001,,,,x,
1659956829497,,,,0.015707963267948967,-0.1239183768915974,0.07330382858376185,x,
1659956829511,1.6,2.7,9.700000000000001,,,,x,
1659956829513,,,,-0.08377580409572782,-0.10821041362364843,0.1710422666954443,x,
1659956829533,,,,-0.09773843811168245,-0.0890117918517108,0.1710422666954443,x,
1659956829549,2,2.7,9.600000000000001,,,,x,
1659956829553,,,,-0.048869219055841226,-0.07504915783575618,0.1361356816555577,x,
1659956829569,1.6,2.6,9,,,,x,
1659956829573,,,,0.012217304763960306,-0.05235987755982989,0.05585053606381855,x,
1659956829592,1.5,2.4000000000000004,9.200000000000001,,,,x,
1659956829593,,,,-0.017453292519943295,-0.006981317007977318,-0.012217304763960306,x,
1659956829612,1.3,2.5,9.1,,,,x,
1659956829614,,,,-0.024434609527920613,0.026179938779914945,-0.03316125578789226,x,
1659956829633,,,,-0.029670597283903602,-0.03316125578789226,-0.05235987755982989,x,
1659956829649,1.3,2.4000000000000004,9.200000000000001,,,,x,
1659956829653,,,,-0.012217304763960306,-0.06806784082777885,-0.07504915783575618,x,
1659956829669,1,2.3000000000000003,9.1,,,,x,
1659956829677,,,,-0.017453292519943295,-0.031415926535897934,-0.09948376736367678,x,
1659956829689,1,2.3000000000000003,8.9,,,,x,
1659956829696,,,,-0.07853981633974483,-0.059341194567807204,-0.08377580409572782,x,
1659956829712,1.1,2.2,8.8,,,,x,
1659956830054,,,,-0.2111848394913139,0.3420845333908886,-0.29146998508305305,x,
1659956830071,-0.2,2.5,9.9,,,,x,
1659956830073,,,,-0.1361356816555577,0.3717551306747922,-0.10995574287564276,x,
1659956830089,0.4,2.7,9.200000000000001,,,,x,
1659956830093,,,,-0.05585053606381855,0.34382986264288296,0.008726646259971648,x,
1659956830109,0.7000000000000001,3,9,,,,x,
1659956830114,,,,-0.013962634015954637,0.21991148575128552,-0.0471238898038469,x,
1659956830137,0.30000000000000004,2.6,10.200000000000001,0.027925268031909273,0.14311699866353503,-0.12740903539558607,x,
1659956830153,,,,0.1710422666954443,0.11868238913561441,-0.13089969389957473,x,
1659956830175,0.4,2.5,9.3,0.28099800957108706,0.11519173063162576,-0.09250245035569947,x,
1659956830201,0.5,3.1,9.1,0.2670353755551324,0.1832595714594046,-0.03839724354387525,x,
1659956830221,,,,0.1832595714594046,0.3665191429188092,0.029670597283903602,x,
1659956830229,0.7000000000000001,2.8000000000000003,8.200000000000001,,,,x,
1659956830243,,,,0.0471238898038469,0.4799655442984406,0.006981317007977318,x,
1659956830249,0.2,3.1,8.9,,,,,
1659956830261,,,,-0.09250245035569947,0.4642575810304917,-0.013962634015954637,,
1659956830277,-0.30000000000000004,3.1,9.9,-0.0890117918517108,0.43982297150257105,-0.005235987755982989,,
1659956830291,0.1,3.1,9.3,,,,,
1659956830293,,,,0.09250245035569947,0.4066617157146788,0.10122909661567112,,
1659956830318,-0.7000000000000001,3.1,8.4,0.27401669256310973,0.33161255787892263,0.18675022996339327,,
1659956830333,,,,0.2635447170511438,0.2949606435870417,0.12042771838760874,,
1659956830349,-0.2,2.9000000000000004,8.200000000000001,,,,,
1659956830574,,,,0.05061454830783556,0.003490658503988659,-0.012217304763960306,,